eotrial,eocinstr,eocmarker1,eocmarker2,eocmarker3,eocmarker4,itemnumber,itemtext,nbackInstruction,condsFile,nbackmarker1,square,loc1,loc2,corrAns,trialsNum,trialNum,eoecloop.thisRepN,eoecloop.thisTrialN,eoecloop.thisN,eoecloop.thisIndex,wakeup.thisRepN,wakeup.thisTrialN,wakeup.thisN,wakeup.thisIndex,questions.thisRepN,questions.thisTrialN,questions.thisN,questions.thisIndex,nb_taskloop.thisRepN,nb_taskloop.thisTrialN,nb_taskloop.thisN,nb_taskloop.thisIndex,nb_trials.thisRepN,nb_trials.thisTrialN,nb_trials.thisN,nb_trials.thisIndex,key_resp_3.keys,key_resp_3.rt,key_resp_3.started,key_resp_3.stopped,text_4.started,text_4.stopped,mouse_2.x,mouse_2.y,mouse_2.leftButton,mouse_2.midButton,mouse_2.rightButton,mouse_2.started,mouse_2.stopped,h_eoec.started,h_eoec.stopped,text_2.started,text_2.stopped,key_resp.keys,key_resp.started,key_resp.stopped,text_8.started,text_8.stopped,key_resp_10.keys,key_resp_10.started,key_resp_10.stopped,img_whte.started,img_whte.stopped,img_black.started,img_black.stopped,text_5.started,text_5.stopped,key_resp_4.keys,key_resp_4.rt,key_resp_4.started,key_resp_4.stopped,mouse.x,mouse.y,mouse.leftButton,mouse.midButton,mouse.rightButton,mouse.started,mouse.stopped,h_arsq.started,h_arsq.stopped,slider.response,slider.rt,slider.started,slider.stopped,text.started,text.stopped,key_resp_9.keys,key_resp_9.started,key_resp_9.stopped,instrText.started,instrText.stopped,h_nback.started,h_nback.stopped,instrImg.started,instrImg.stopped,trialResp.keys,trialResp.started,trialResp.stopped,trialSquare.started,trialSquare.stopped,trialFix.started,trialFix.stopped,gridLine1.started,gridLine1.stopped,gridLine2.started,gridLine2.stopped,gridLine3.started,gridLine3.stopped,gridLine4.started,gridLine4.stopped,gridLine5.started,gridLine5.stopped,gridLine6.started,gridLine6.stopped,gridLine7.started,gridLine7.stopped,gridLine8.started,gridLine8.stopped,trialResp.rt,endText.started,endText.stopped,key_resp_5.keys,key_resp_5.rt,key_resp_5.started,key_resp_5.stopped,text_6.started,text_6.stopped,key_resp_6.keys,key_resp_6.rt,key_resp_6.started,key_resp_6.stopped,h_movie.started,h_movie.stopped,key_resp_8.keys,key_resp_8.rt,key_resp_8.started,key_resp_8.stopped,text_7.started,text_7.stopped,key_resp_7.keys,key_resp_7.started,key_resp_7.stopped,participant,session,date,expName,psychopyVersion,frameRate,
,,,,,,,,,,,,,,,,,,,,,,,,,,,,,,,,,,,,,s,1.1017634000163525,13.999778800003696,None,,,,,,,,,,,,,,,,,,,,,,,,,,,,,,,,,,,,,,,,,,,,,,,,,,,,,,,,,,,,,,,,,,,,,,,,,,,,,,,,,,,,,,,,,,,,,,,,,,,,,,,2,001,2022-09-26_15h38.27.159,test9,2022.1.4,59.93935336798542,
,,,,,,,,,,,,,,,,,,,,,,,,,,,,,,,,,,,,,,,,,13.999778800003696,None,-0.10277778,0.175,0,0,0,0.016287090023979545,None,,,,,,,,,,,,,,,,,,,,,,,,,,,,,,,,,,,,,,,,,,,,,,,,,,,,,,,,,,,,,,,,,,,,,,,,,,,,,,,,,,,,,,,,,,,,,,2,001,2022-09-26_15h38.27.159,test9,2022.1.4,59.93935336798542,
1,eyes open,11,12,13,14,,,,,,,,,,,,0,0,0,0,,,,,,,,,,,,,,,,,,,,,,,,,,,,,,13.999778800003696,None,None,None,None,None,None,None,None,None,None,None,,,,,,,,,,,,,,,,,,,,,,,,,,,,,,,,,,,,,,,,,,,,,,,,,,,,,,,,,,,,,,,,,,,,,,,,,,,,,,,,,,2,001,2022-09-26_15h38.27.159,test9,2022.1.4,59.93935336798542,
2,eyes closed,21,22,23,24,,,,,,,,,,,,0,1,1,1,,,,,,,,,,,,,,,,,,,,,,,,,,,,,,,,None,None,None,None,None,None,None,None,None,None,,,,,,,,,,,,,,,,,,,,,,,,,,,,,,,,,,,,,,,,,,,,,,,,,,,,,,,,,,,,,,,,,,,,,,,,,,,,,,,,,,2,001,2022-09-26_15h38.27.159,test9,2022.1.4,59.93935336798542,
,,,,,,,,,,,,,,,,,,,,,0,0,0,0,,,,,,,,,,,,,,,,,,,,,,,,,,,,,,,,,,,,,,None,None,None,None,,,,,,,,,,,,,,,,,,,,,,,,,,,,,,,,,,,,,,,,,,,,,,,,,,,,,,,,,,,,,,,,,,,,,,,,,,,,,,2,001,2022-09-26_15h38.27.159,test9,2022.1.4,59.93935336798542,
,,,,,,,,,,,,,,,,,,,,,1,0,1,0,,,,,,,,,,,,,,,,,,,,,,,,,,,,,,,,,,,,,,None,None,None,None,,,,,,,,,,,,,,,,,,,,,,,,,,,,,,,,,,,,,,,,,,,,,,,,,,,,,,,,,,,,,,,,,,,,,,,,,,,,,,2,001,2022-09-26_15h38.27.159,test9,2022.1.4,59.93935336798542,
,,,,,,,,,,,,,,,,,,,,,2,0,2,0,,,,,,,,,,,,,,,,,,,,,,,,,,,,,,,,,,,,,,None,None,None,None,,,,,,,,,,,,,,,,,,,,,,,,,,,,,,,,,,,,,,,,,,,,,,,,,,,,,,,,,,,,,,,,,,,,,,,,,,,,,,2,001,2022-09-26_15h38.27.159,test9,2022.1.4,59.93935336798542,
,,,,,,,,,,,,,,,,,,,,,3,0,3,0,,,,,,,,,,,,,,,,,,,,,,,,,,,,,,,,,,,,,,None,None,None,None,,,,,,,,,,,,,,,,,,,,,,,,,,,,,,,,,,,,,,,,,,,,,,,,,,,,,,,,,,,,,,,,,,,,,,,,,,,,,,2,001,2022-09-26_15h38.27.159,test9,2022.1.4,59.93935336798542,
,,,,,,,,,,,,,,,,,,,,,,,,,,,,,,,,,,,,,,,,,,,,,,,,,,,,,,,,,,,,,,,,,,15.177702400018461,None,s,0.6919469999847934,15.177702400018461,None,,,,,,,,,,,,,,,,,,,,,,,,,,,,,,,,,,,,,,,,,,,,,,,,,,,,,,,,,,,,,,,,,,,,,,,,2,001,2022-09-26_15h38.27.159,test9,2022.1.4,59.93935336798542,
,,,,,,,,,,,,,,,,,,,,,,,,,,,,,,,,,,,,,,,,,,,,,,,,,,,,,,,,,,,,,,,,,,,,,,,,-0.10277778,0.175,0,0,0,0.0052786399610340595,None,,,,,,,,,,,,,,,,,,,,,,,,,,,,,,,,,,,,,,,,,,,,,,,,,,,,,,,,,,,,,,,,,2,001,2022-09-26_15h38.27.159,test9,2022.1.4,59.93935336798542,
,,,,,,6,I thought about people I like,,,,,,,,,,,,,,,,,,0,0,0,5,,,,,,,,,,,,,,,,,,,,,,,,,,,,,,,,,,,,,,,,,,,,,,,,,,,15.177702400018461,None,None,None,None,None,None,None,None,None,None,,,,,,,,,,,,,,,,,,,,,,,,,,,,,,,,,,,,,,,,,,,,,,,,,,,,,,2,001,2022-09-26_15h38.27.159,test9,2022.1.4,59.93935336798542,
,,,,,,20,I thought about my breathing,,,,,,,,,,,,,,,,,,0,1,1,19,,,,,,,,,,,,,,,,,,,,,,,,,,,,,,,,,,,,,,,,,,,,,,,,,,,,,None,None,None,None,None,None,None,None,None,,,,,,,,,,,,,,,,,,,,,,,,,,,,,,,,,,,,,,,,,,,,,,,,,,,,,,2,001,2022-09-26_15h38.27.159,test9,2022.1.4,59.93935336798542,
,,,,,,4,I thought about others,,,,,,,,,,,,,,,,,,0,2,2,3,,,,,,,,,,,,,,,,,,,,,,,,,,,,,,,,,,,,,,,,,,,,,,,,,,,,,None,None,None,None,None,None,None,None,None,,,,,,,,,,,,,,,,,,,,,,,,,,,,,,,,,,,,,,,,,,,,,,,,,,,,,,2,001,2022-09-26_15h38.27.159,test9,2022.1.4,59.93935336798542,
,,,,,,3,I had difficulty holding on to my thoughts,,,,,,,,,,,,,,,,,,0,3,3,2,,,,,,,,,,,,,,,,,,,,,,,,,,,,,,,,,,,,,,,,,,,,,,,,,,,,,None,None,None,None,None,None,None,None,None,,,,,,,,,,,,,,,,,,,,,,,,,,,,,,,,,,,,,,,,,,,,,,,,,,,,,,2,001,2022-09-26_15h38.27.159,test9,2022.1.4,59.93935336798542,
,,,,,,16,I felt comfortable,,,,,,,,,,,,,,,,,,0,4,4,15,,,,,,,,,,,,,,,,,,,,,,,,,,,,,,,,,,,,,,,,,,,,,,,,,,,,,None,None,None,None,None,None,None,None,None,,,,,,,,,,,,,,,,,,,,,,,,,,,,,,,,,,,,,,,,,,,,,,,,,,,,,,2,001,2022-09-26_15h38.27.159,test9,2022.1.4,59.93935336798542,
,,,,,,33,I felt motivated to participate,,,,,,,,,,,,,,,,,,0,5,5,32,,,,,,,,,,,,,,,,,,,,,,,,,,,,,,,,,,,,,,,,,,,,,,,,,,,,,None,None,None,None,None,None,None,None,None,,,,,,,,,,,,,,,,,,,,,,,,,,,,,,,,,,,,,,,,,,,,,,,,,,,,,,2,001,2022-09-26_15h38.27.159,test9,2022.1.4,59.93935336798542,
,,,,,,11,I thought about solving problems,,,,,,,,,,,,,,,,,,0,6,6,10,,,,,,,,,,,,,,,,,,,,,,,,,,,,,,,,,,,,,,,,,,,,,,,,,,,,,None,None,None,None,None,None,None,None,None,,,,,,,,,,,,,,,,,,,,,,,,,,,,,,,,,,,,,,,,,,,,,,,,,,,,,,2,001,2022-09-26_15h38.27.159,test9,2022.1.4,59.93935336798542,
,,,,,,30,I imagined talking to myself,,,,,,,,,,,,,,,,,,0,7,7,29,,,,,,,,,,,,,,,,,,,,,,,,,,,,,,,,,,,,,,,,,,,,,,,,,,,,,None,None,None,None,None,None,None,None,None,,,,,,,,,,,,,,,,,,,,,,,,,,,,,,,,,,,,,,,,,,,,,,,,,,,,,,2,001,2022-09-26_15h38.27.159,test9,2022.1.4,59.93935336798542,
,,,,,,7,I thought about my feelings,,,,,,,,,,,,,,,,,,0,8,8,6,,,,,,,,,,,,,,,,,,,,,,,,,,,,,,,,,,,,,,,,,,,,,,,,,,,,,None,None,None,None,None,None,None,None,None,,,,,,,,,,,,,,,,,,,,,,,,,,,,,,,,,,,,,,,,,,,,,,,,,,,,,,2,001,2022-09-26_15h38.27.159,test9,2022.1.4,59.93935336798542,
,,,,,,25,I pictured events,,,,,,,,,,,,,,,,,,0,9,9,24,,,,,,,,,,,,,,,,,,,,,,,,,,,,,,,,,,,,,,,,,,,,,,,,,,,,,None,None,None,None,None,None,None,None,None,,,,,,,,,,,,,,,,,,,,,,,,,,,,,,,,,,,,,,,,,,,,,,,,,,,,,,2,001,2022-09-26_15h38.27.159,test9,2022.1.4,59.93935336798542,
,,,,,,24,I felt pain,,,,,,,,,,,,,,,,,,0,10,10,23,,,,,,,,,,,,,,,,,,,,,,,,,,,,,,,,,,,,,,,,,,,,,,,,,,,,,None,None,None,None,None,None,None,None,None,,,,,,,,,,,,,,,,,,,,,,,,,,,,,,,,,,,,,,,,,,,,,,,,,,,,,,2,001,2022-09-26_15h38.27.159,test9,2022.1.4,59.93935336798542,
,,,,,,12,I thought about the future,,,,,,,,,,,,,,,,,,0,11,11,11,,,,,,,,,,,,,,,,,,,,,,,,,,,,,,,,,,,,,,,,,,,,,,,,,,,,,None,None,None,None,None,None,None,None,None,,,,,,,,,,,,,,,,,,,,,,,,,,,,,,,,,,,,,,,,,,,,,,,,,,,,,,2,001,2022-09-26_15h38.27.159,test9,2022.1.4,59.93935336798542,
,,,,,,29,I thought in words,,,,,,,,,,,,,,,,,,0,12,12,28,,,,,,,,,,,,,,,,,,,,,,,,,,,,,,,,,,,,,,,,,,,,,,,,,,,,,None,None,None,None,None,None,None,None,None,,,,,,,,,,,,,,,,,,,,,,,,,,,,,,,,,,,,,,,,,,,,,,,,,,,,,,2,001,2022-09-26_15h38.27.159,test9,2022.1.4,59.93935336798542,
,,,,,,15,I had difficulty staying awake,,,,,,,,,,,,,,,,,,0,13,13,14,,,,,,,,,,,,,,,,,,,,,,,,,,,,,,,,,,,,,,,,,,,,,,,,,,,,,None,None,None,None,None,None,None,None,None,,,,,,,,,,,,,,,,,,,,,,,,,,,,,,,,,,,,,,,,,,,,,,,,,,,,,,2,001,2022-09-26_15h38.27.159,test9,2022.1.4,59.93935336798542,
,,,,,,18,I felt happy,,,,,,,,,,,,,,,,,,0,14,14,17,,,,,,,,,,,,,,,,,,,,,,,,,,,,,,,,,,,,,,,,,,,,,,,,,,,,,None,None,None,None,None,None,None,None,None,,,,,,,,,,,,,,,,,,,,,,,,,,,,,,,,,,,,,,,,,,,,,,,,,,,,,,2,001,2022-09-26_15h38.27.159,test9,2022.1.4,59.93935336798542,
,,,,,,27,I pictured places,,,,,,,,,,,,,,,,,,0,15,15,26,,,,,,,,,,,,,,,,,,,,,,,,,,,,,,,,,,,,,,,,,,,,,,,,,,,,,None,None,None,None,None,None,None,None,None,,,,,,,,,,,,,,,,,,,,,,,,,,,,,,,,,,,,,,,,,,,,,,,,,,,,,,2,001,2022-09-26_15h38.27.159,test9,2022.1.4,59.93935336798542,
,,,,,,34,I had my eyes closed,,,,,,,,,,,,,,,,,,0,16,16,33,,,,,,,,,,,,,,,,,,,,,,,,,,,,,,,,,,,,,,,,,,,,,,,,,,,,,None,None,None,None,None,None,None,None,None,,,,,,,,,,,,,,,,,,,,,,,,,,,,,,,,,,,,,,,,,,,,,,,,,,,,,,2,001,2022-09-26_15h38.27.159,test9,2022.1.4,59.93935336798542,
,,,,,,5,I placed myself in other peoples shoes,,,,,,,,,,,,,,,,,,0,17,17,4,,,,,,,,,,,,,,,,,,,,,,,,,,,,,,,,,,,,,,,,,,,,,,,,,,,,,None,None,None,None,None,None,None,None,None,,,,,,,,,,,,,,,,,,,,,,,,,,,,,,,,,,,,,,,,,,,,,,,,,,,,,,2,001,2022-09-26_15h38.27.159,test9,2022.1.4,59.93935336798542,
,,,,,,26,I thought in images,,,,,,,,,,,,,,,,,,0,18,18,25,,,,,,,,,,,,,,,,,,,,,,,,,,,,,,,,,,,,,,,,,,,,,,,,,,,,,None,None,None,None,None,None,None,None,None,,,,,,,,,,,,,,,,,,,,,,,,,,,,,,,,,,,,,,,,,,,,,,,,,,,,,,2,001,2022-09-26_15h38.27.159,test9,2022.1.4,59.93935336798542,
,,,,,,8,I thought about my behavior,,,,,,,,,,,,,,,,,,0,19,19,7,,,,,,,,,,,,,,,,,,,,,,,,,,,,,,,,,,,,,,,,,,,,,,,,,,,,,None,None,None,None,None,None,None,None,None,,,,,,,,,,,,,,,,,,,,,,,,,,,,,,,,,,,,,,,,,,,,,,,,,,,,,,2,001,2022-09-26_15h38.27.159,test9,2022.1.4,59.93935336798542,
,,,,,,22,I felt ill,,,,,,,,,,,,,,,,,,0,20,20,21,,,,,,,,,,,,,,,,,,,,,,,,,,,,,,,,,,,,,,,,,,,,,,,,,,,,,None,None,None,None,None,None,None,None,None,,,,,,,,,,,,,,,,,,,,,,,,,,,,,,,,,,,,,,,,,,,,,,,,,,,,,,2,001,2022-09-26_15h38.27.159,test9,2022.1.4,59.93935336798542,
,,,,,,17,I felt relaxed,,,,,,,,,,,,,,,,,,0,21,21,16,,,,,,,,,,,,,,,,,,,,,,,,,,,,,,,,,,,,,,,,,,,,,,,,,,,,,None,None,None,None,None,None,None,None,None,,,,,,,,,,,,,,,,,,,,,,,,,,,,,,,,,,,,,,,,,,,,,,,,,,,,,,2,001,2022-09-26_15h38.27.159,test9,2022.1.4,59.93935336798542,
,,,,,,13,I felt tired,,,,,,,,,,,,,,,,,,0,22,22,12,,,,,,,,,,,,,,,,,,,,,,,,,,,,,,,,,,,,,,,,,,,,,,,,,,,,,None,None,None,None,None,None,None,None,None,,,,,,,,,,,,,,,,,,,,,,,,,,,,,,,,,,,,,,,,,,,,,,,,,,,,,,2,001,2022-09-26_15h38.27.159,test9,2022.1.4,59.93935336798542,
,,,,,,32,I had difficulty remembering my feelings,,,,,,,,,,,,,,,,,,0,23,23,31,,,,,,,,,,,,,,,,,,,,,,,,,,,,,,,,,,,,,,,,,,,,,,,,,,,,,None,None,None,None,None,None,None,None,None,,,,,,,,,,,,,,,,,,,,,,,,,,,,,,,,,,,,,,,,,,,,,,,,,,,,,,2,001,2022-09-26_15h38.27.159,test9,2022.1.4,59.93935336798542,
,,,,,,9,I thought about myself,,,,,,,,,,,,,,,,,,0,24,24,8,,,,,,,,,,,,,,,,,,,,,,,,,,,,,,,,,,,,,,,,,,,,,,,,,,,,,None,None,None,None,None,None,None,None,None,,,,,,,,,,,,,,,,,,,,,,,,,,,,,,,,,,,,,,,,,,,,,,,,,,,,,,2,001,2022-09-26_15h38.27.159,test9,2022.1.4,59.93935336798542,
,,,,,,21,I thought about my heartbeat,,,,,,,,,,,,,,,,,,0,25,25,20,,,,,,,,,,,,,,,,,,,,,,,,,,,,,,,,,,,,,,,,,,,,,,,,,,,,,None,None,None,None,None,None,None,None,None,,,,,,,,,,,,,,,,,,,,,,,,,,,,,,,,,,,,,,,,,,,,,,,,,,,,,,2,001,2022-09-26_15h38.27.159,test9,2022.1.4,59.93935336798542,
,,,,,,23,I thought about my health,,,,,,,,,,,,,,,,,,0,26,26,22,,,,,,,,,,,,,,,,,,,,,,,,,,,,,,,,,,,,,,,,,,,,,,,,,,,,,None,None,None,None,None,None,None,None,None,,,,,,,,,,,,,,,,,,,,,,,,,,,,,,,,,,,,,,,,,,,,,,,,,,,,,,2,001,2022-09-26_15h38.27.159,test9,2022.1.4,59.93935336798542,
,,,,,,14,I felt sleepy,,,,,,,,,,,,,,,,,,0,27,27,13,,,,,,,,,,,,,,,,,,,,,,,,,,,,,,,,,,,,,,,,,,,,,,,,,,,,,None,None,None,None,None,None,None,None,None,,,,,,,,,,,,,,,,,,,,,,,,,,,,,,,,,,,,,,,,,,,,,,,,,,,,,,2,001,2022-09-26_15h38.27.159,test9,2022.1.4,59.93935336798542,
,,,,,,10,I thought about things I need to do,,,,,,,,,,,,,,,,,,0,28,28,9,,,,,,,,,,,,,,,,,,,,,,,,,,,,,,,,,,,,,,,,,,,,,,,,,,,,,None,None,None,None,None,None,None,None,None,,,,,,,,,,,,,,,,,,,,,,,,,,,,,,,,,,,,,,,,,,,,,,,,,,,,,,2,001,2022-09-26_15h38.27.159,test9,2022.1.4,59.93935336798542,
,,,,,,2,I had rapidly switching thoughts,,,,,,,,,,,,,,,,,,0,29,29,1,,,,,,,,,,,,,,,,,,,,,,,,,,,,,,,,,,,,,,,,,,,,,,,,,,,,,None,None,None,None,None,None,None,None,None,,,,,,,,,,,,,,,,,,,,,,,,,,,,,,,,,,,,,,,,,,,,,,,,,,,,,,2,001,2022-09-26_15h38.27.159,test9,2022.1.4,59.93935336798542,
,,,,,,31,I had difficulty remembering my thoughts,,,,,,,,,,,,,,,,,,0,30,30,30,,,,,,,,,,,,,,,,,,,,,,,,,,,,,,,,,,,,,,,,,,,,,,,,,,,,,None,None,None,None,None,None,None,None,None,,,,,,,,,,,,,,,,,,,,,,,,,,,,,,,,,,,,,,,,,,,,,,,,,,,,,,2,001,2022-09-26_15h38.27.159,test9,2022.1.4,59.93935336798542,
,,,,,,35,I was able to rate the statements,,,,,,,,,,,,,,,,,,0,31,31,34,,,,,,,,,,,,,,,,,,,,,,,,,,,,,,,,,,,,,,,,,,,,,,,,,,,,,None,None,None,None,None,None,None,None,None,,,,,,,,,,,,,,,,,,,,,,,,,,,,,,,,,,,,,,,,,,,,,,,,,,,,,,2,001,2022-09-26_15h38.27.159,test9,2022.1.4,59.93935336798542,
,,,,,,28,I had silent conversations,,,,,,,,,,,,,,,,,,0,32,32,27,,,,,,,,,,,,,,,,,,,,,,,,,,,,,,,,,,,,,,,,,,,,,,,,,,,,,None,None,None,None,None,None,None,None,None,,,,,,,,,,,,,,,,,,,,,,,,,,,,,,,,,,,,,,,,,,,,,,,,,,,,,,2,001,2022-09-26_15h38.27.159,test9,2022.1.4,59.93935336798542,
,,,,,,1,I had busy thoughts,,,,,,,,,,,,,,,,,,0,33,33,0,,,,,,,,,,,,,,,,,,,,,,,,,,,,,,,,,,,,,,,,,,,,,,,,,,,,,None,None,None,None,None,None,None,None,None,,,,,,,,,,,,,,,,,,,,,,,,,,,,,,,,,,,,,,,,,,,,,,,,,,,,,,2,001,2022-09-26_15h38.27.159,test9,2022.1.4,59.93935336798542,
,,,,,,19,I was conscious of my body,,,,,,,,,,,,,,,,,,0,34,34,18,,,,,,,,,,,,,,,,,,,,,,,,,,,,,,,,,,,,,,,,,,,,,,,,,,,,,None,None,None,None,None,None,None,None,None,,,,,,,,,,,,,,,,,,,,,,,,,,,,,,,,,,,,,,,,,,,,,,,,,,,,,,2,001,2022-09-26_15h38.27.159,test9,2022.1.4,59.93935336798542,
,,,,,,,,1,nBack1Cond.xlsx,111,6,0.2,0,None,1,1,,,,,,,,,,,,,0,0,0,0,0,0,0,0,,,,,,,,,,,,,,,,,,,,,,,,,,,,,,,,,,,,,,,,,,,,,,,,,,,,,,16.664060300041456,None,16.664060300041456,None,16.664060300041456,None,None,21.714574399986304,None,21.714574399986304,22.726610200013965,22.71026050002547,None,21.714574399986304,None,21.714574399986304,None,21.714574399986304,None,21.714574399986304,None,21.714574399986304,None,21.714574399986304,None,21.714574399986304,None,21.714574399986304,None,,,,,,,,,,,,,,,,,,,,,,,,,2,001,2022-09-26_15h38.27.159,test9,2022.1.4,59.93935336798542,
,,,,,,,,1,nBack1Cond.xlsx,111,6,0.2,0,space,1,2,,,,,,,,,,,,,0,0,0,0,0,1,1,1,,,,,,,,,,,,,,,,,,,,,,,,,,,,,,,,,,,,,,,,,,,,,,,,,,,,,,,,,,,,space,23.71392350003589,None,23.71392350003589,24.727164899988566,24.71000990003813,None,23.71392350003589,None,23.71392350003589,None,23.71392350003589,None,23.71392350003589,None,23.71392350003589,None,23.71392350003589,None,23.71392350003589,None,23.71392350003589,None,0.5086164000094868,,,,,,,,,,,,,,,,,,,,,,,,2,001,2022-09-26_15h38.27.159,test9,2022.1.4,59.93935336798542,
,,,,,,,,1,nBack1Cond.xlsx,111,2,0,0.2,None,1,3,,,,,,,,,,,,,0,0,0,0,0,2,2,2,,,,,,,,,,,,,,,,,,,,,,,,,,,,,,,,,,,,,,,,,,,,,,,,,,,,,,,,,,,,None,25.713875100016594,None,25.713875100016594,26.72686520003481,26.71012589999009,None,25.713875100016594,None,25.713875100016594,None,25.713875100016594,None,25.713875100016594,None,25.713875100016594,None,25.713875100016594,None,25.713875100016594,None,25.713875100016594,None,,,,,,,,,,,,,,,,,,,,,,,,,2,001,2022-09-26_15h38.27.159,test9,2022.1.4,59.93935336798542,
,,,,,,,,1,nBack1Cond.xlsx,111,9,0.2,-0.2,None,1,4,,,,,,,,,,,,,0,0,0,0,0,3,3,3,,,,,,,,,,,,,,,,,,,,,,,,,,,,,,,,,,,,,,,,,,,,,,,,,,,,,,,,,,,,None,27.713234500028193,None,27.713234500028193,28.726828399987426,28.71029310004087,None,27.713234500028193,None,27.713234500028193,None,27.713234500028193,None,27.713234500028193,None,27.713234500028193,None,27.713234500028193,None,27.713234500028193,None,27.713234500028193,None,,,,,,,,,,,,,,,,,,,,,,,,,2,001,2022-09-26_15h38.27.159,test9,2022.1.4,59.93935336798542,
,,,,,,,,1,nBack1Cond.xlsx,111,9,0.2,-0.2,space,1,5,,,,,,,,,,,,,0,0,0,0,0,4,4,4,,,,,,,,,,,,,,,,,,,,,,,,,,,,,,,,,,,,,,,,,,,,,,,,,,,,,,,,,,,,space,29.71497560001444,None,29.71497560001444,30.72666789998766,30.709950199991,None,29.71497560001444,None,29.71497560001444,None,29.71497560001444,None,29.71497560001444,None,29.71497560001444,None,29.71497560001444,None,29.71497560001444,None,29.71497560001444,None,0.3381232000538148,,,,,,,,,,,,,,,,,,,,,,,,2,001,2022-09-26_15h38.27.159,test9,2022.1.4,59.93935336798542,
,,,,,,,,1,nBack1Cond.xlsx,111,6,0.2,0,None,1,6,,,,,,,,,,,,,0,0,0,0,0,5,5,5,,,,,,,,,,,,,,,,,,,,,,,,,,,,,,,,,,,,,,,,,,,,,,,,,,,,,,,,,,,,None,31.71308429999044,None,31.71308429999044,32.7264810000197,32.709971000032965,None,31.71308429999044,None,31.71308429999044,None,31.71308429999044,None,31.71308429999044,None,31.71308429999044,None,31.71308429999044,None,31.71308429999044,None,31.71308429999044,None,,,,,,,,,,,,,,,,,,,,,,,,,2,001,2022-09-26_15h38.27.159,test9,2022.1.4,59.93935336798542,
,,,,,,,,1,nBack1Cond.xlsx,111,4,-0.2,0,None,1,7,,,,,,,,,,,,,0,0,0,0,0,6,6,6,,,,,,,,,,,,,,,,,,,,,,,,,,,,,,,,,,,,,,,,,,,,,,,,,,,,,,,,,,,,None,33.71364640002139,None,33.71364640002139,34.727478899993,34.71040590002667,None,33.71364640002139,None,33.71364640002139,None,33.71364640002139,None,33.71364640002139,None,33.71364640002139,None,33.71364640002139,None,33.71364640002139,None,33.71364640002139,None,,,,,,,,,,,,,,,,,,,,,,,,,2,001,2022-09-26_15h38.27.159,test9,2022.1.4,59.93935336798542,
,,,,,,,,1,nBack1Cond.xlsx,111,3,0.2,0.2,None,1,8,,,,,,,,,,,,,0,0,0,0,0,7,7,7,,,,,,,,,,,,,,,,,,,,,,,,,,,,,,,,,,,,,,,,,,,,,,,,,,,,,,,,,,,,None,35.714545499999076,None,35.714545499999076,36.7265475000022,36.71005039999727,None,35.714545499999076,None,35.714545499999076,None,35.714545499999076,None,35.714545499999076,None,35.714545499999076,None,35.714545499999076,None,35.714545499999076,None,35.714545499999076,None,,,,,,,,,,,,,,,,,,,,,,,,,2,001,2022-09-26_15h38.27.159,test9,2022.1.4,59.93935336798542,
,,,,,,,,1,nBack1Cond.xlsx,111,3,0.2,0.2,space,1,9,,,,,,,,,,,,,0,0,0,0,0,8,8,8,,,,,,,,,,,,,,,,,,,,,,,,,,,,,,,,,,,,,,,,,,,,,,,,,,,,,,,,,,,,space,37.71344940003473,None,37.71344940003473,38.72678490000544,38.71001780004008,None,37.71344940003473,None,37.71344940003473,None,37.71344940003473,None,37.71344940003473,None,37.71344940003473,None,37.71344940003473,None,37.71344940003473,None,37.71344940003473,None,0.42793469998287037,,,,,,,,,,,,,,,,,,,,,,,,2,001,2022-09-26_15h38.27.159,test9,2022.1.4,59.93935336798542,
,,,,,,,,1,nBack1Cond.xlsx,111,8,0,-0.2,None,1,10,,,,,,,,,,,,,0,0,0,0,0,9,9,9,,,,,,,,,,,,,,,,,,,,,,,,,,,,,,,,,,,,,,,,,,,,,,,,,,,,,,,,,,,,None,39.71218140004203,None,39.71218140004203,40.726448700006586,40.71023020002758,None,39.71218140004203,None,39.71218140004203,None,39.71218140004203,None,39.71218140004203,None,39.71218140004203,None,39.71218140004203,None,39.71218140004203,None,39.71218140004203,None,,,,,,,,,,,,,,,,,,,,,,,,,2,001,2022-09-26_15h38.27.159,test9,2022.1.4,59.93935336798542,
,,,,,,,,1,nBack1Cond.xlsx,111,1,-0.2,0.2,None,1,11,,,,,,,,,,,,,0,0,0,0,0,10,10,10,,,,,,,,,,,,,,,,,,,,,,,,,,,,,,,,,,,,,,,,,,,,,,,,,,,,,,,,,,,,None,41.71191310003633,None,41.71191310003633,42.72679769998649,42.70997140003601,None,41.71191310003633,None,41.71191310003633,None,41.71191310003633,None,41.71191310003633,None,41.71191310003633,None,41.71191310003633,None,41.71191310003633,None,41.71191310003633,None,,,,,,,,,,,,,,,,,,,,,,,,,2,001,2022-09-26_15h38.27.159,test9,2022.1.4,59.93935336798542,
,,,,,,,,1,nBack1Cond.xlsx,111,2,0,0.2,None,1,12,,,,,,,,,,,,,0,0,0,0,0,11,11,11,,,,,,,,,,,,,,,,,,,,,,,,,,,,,,,,,,,,,,,,,,,,,,,,,,,,,,,,,,,,None,43.714049500005785,None,43.714049500005785,44.726394500001334,44.71024079999188,None,43.714049500005785,None,43.714049500005785,None,43.714049500005785,None,43.714049500005785,None,43.714049500005785,None,43.714049500005785,None,43.714049500005785,None,43.714049500005785,None,,,,,,,,,,,,,,,,,,,,,,,,,2,001,2022-09-26_15h38.27.159,test9,2022.1.4,59.93935336798542,
,,,,,,,,1,nBack1Cond.xlsx,111,4,-0.2,0,None,1,13,,,,,,,,,,,,,0,0,0,0,0,12,12,12,,,,,,,,,,,,,,,,,,,,,,,,,,,,,,,,,,,,,,,,,,,,,,,,,,,,,,,,,,,,None,45.713040600006934,None,45.713040600006934,46.726712200033944,46.71077070001047,None,45.713040600006934,None,45.713040600006934,None,45.713040600006934,None,45.713040600006934,None,45.713040600006934,None,45.713040600006934,None,45.713040600006934,None,45.713040600006934,None,,,,,,,,,,,,,,,,,,,,,,,,,2,001,2022-09-26_15h38.27.159,test9,2022.1.4,59.93935336798542,
,,,,,,,,1,nBack1Cond.xlsx,111,4,-0.2,0,space,1,14,,,,,,,,,,,,,0,0,0,0,0,13,13,13,,,,,,,,,,,,,,,,,,,,,,,,,,,,,,,,,,,,,,,,,,,,,,,,,,,,,,,,,,,,space,47.71225050004432,None,47.71225050004432,48.72670250001829,48.71028270001989,None,47.71225050004432,None,47.71225050004432,None,47.71225050004432,None,47.71225050004432,None,47.71225050004432,None,47.71225050004432,None,47.71225050004432,None,47.71225050004432,None,0.6453037000028417,,,,,,,,,,,,,,,,,,,,,,,,2,001,2022-09-26_15h38.27.159,test9,2022.1.4,59.93935336798542,
,,,,,,,,1,nBack1Cond.xlsx,111,8,0,-0.2,None,1,15,,,,,,,,,,,,,0,0,0,0,0,14,14,14,,,,,,,,,,,,,,,,,,,,,,,,,,,,,,,,,,,,,,,,,,,,,,,,,,,,,,,,,,,,None,49.71207680000225,None,49.71207680000225,50.72721109999111,50.710473600018304,None,49.71207680000225,None,49.71207680000225,None,49.71207680000225,None,49.71207680000225,None,49.71207680000225,None,49.71207680000225,None,49.71207680000225,None,49.71207680000225,None,,,,,,,,,,,,,,,,,,,,,,,,,2,001,2022-09-26_15h38.27.159,test9,2022.1.4,59.93935336798542,
,,,,,,,,1,nBack1Cond.xlsx,111,5,0,0,None,1,16,,,,,,,,,,,,,0,0,0,0,0,15,15,15,,,,,,,,,,,,,,,,,,,,,,,,,,,,,,,,,,,,,,,,,,,,,,,,,,,,,,,,,,,,None,51.71203029999742,None,51.71203029999742,52.72651280002901,52.71024770004442,None,51.71203029999742,None,51.71203029999742,None,51.71203029999742,None,51.71203029999742,None,51.71203029999742,None,51.71203029999742,None,51.71203029999742,None,51.71203029999742,None,,,,,,,,,,,,,,,,,,,,,,,,,2,001,2022-09-26_15h38.27.159,test9,2022.1.4,59.93935336798542,
,,,,,,,,1,nBack1Cond.xlsx,111,5,0,0,space,1,17,,,,,,,,,,,,,0,0,0,0,0,16,16,16,,,,,,,,,,,,,,,,,,,,,,,,,,,,,,,,,,,,,,,,,,,,,,,,,,,,,,,,,,,,space,53.71440629998688,None,53.71440629998688,54.72767390002264,54.71036070003174,None,53.71440629998688,None,53.71440629998688,None,53.71440629998688,None,53.71440629998688,None,53.71440629998688,None,53.71440629998688,None,53.71440629998688,None,53.71440629998688,None,0.5718624999863096,,,,,,,,,,,,,,,,,,,,,,,,2,001,2022-09-26_15h38.27.159,test9,2022.1.4,59.93935336798542,
,,,,,,,,1,nBack1Cond.xlsx,111,1,-0.2,0.2,None,1,18,,,,,,,,,,,,,0,0,0,0,0,17,17,17,,,,,,,,,,,,,,,,,,,,,,,,,,,,,,,,,,,,,,,,,,,,,,,,,,,,,,,,,,,,None,55.7140386000392,None,55.7140386000392,56.726489900029264,56.71038840000983,None,55.7140386000392,None,55.7140386000392,None,55.7140386000392,None,55.7140386000392,None,55.7140386000392,None,55.7140386000392,None,55.7140386000392,None,55.7140386000392,None,,,,,,,,,,,,,,,,,,,,,,,,,2,001,2022-09-26_15h38.27.159,test9,2022.1.4,59.93935336798542,
,,,,,,,,1,nBack1Cond.xlsx,111,3,0.2,0.2,None,1,19,,,,,,,,,,,,,0,0,0,0,0,18,18,18,,,,,,,,,,,,,,,,,,,,,,,,,,,,,,,,,,,,,,,,,,,,,,,,,,,,,,,,,,,,None,57.71280580002349,None,57.71280580002349,58.72669570002472,58.71035230002599,None,57.71280580002349,None,57.71280580002349,None,57.71280580002349,None,57.71280580002349,None,57.71280580002349,None,57.71280580002349,None,57.71280580002349,None,57.71280580002349,None,,,,,,,,,,,,,,,,,,,,,,,,,2,001,2022-09-26_15h38.27.159,test9,2022.1.4,59.93935336798542,
,,,,,,,,1,nBack1Cond.xlsx,111,6,0.2,0,None,1,20,,,,,,,,,,,,,0,0,0,0,0,19,19,19,,,,,,,,,,,,,,,,,,,,,,,,,,,,,,,,,,,,,,,,,,,,,,,,,,,,,,,,,,,,None,59.71209490002366,None,59.71209490002366,60.72640460002003,60.70969099999638,None,59.71209490002366,None,59.71209490002366,None,59.71209490002366,None,59.71209490002366,None,59.71209490002366,None,59.71209490002366,None,59.71209490002366,None,59.71209490002366,None,,,,,,,,,,,,,,,,,,,,,,,,,2,001,2022-09-26_15h38.27.159,test9,2022.1.4,59.93935336798542,
,,,,,,,,1,nBack1Cond.xlsx,111,1,-0.2,0.2,None,1,21,,,,,,,,,,,,,0,0,0,0,0,20,20,20,,,,,,,,,,,,,,,,,,,,,,,,,,,,,,,,,,,,,,,,,,,,,,,,,,,,,,,,,,,,None,61.71237160003511,None,61.71237160003511,62.72709980001673,62.71030229999451,None,61.71237160003511,None,61.71237160003511,None,61.71237160003511,None,61.71237160003511,None,61.71237160003511,None,61.71237160003511,None,61.71237160003511,None,61.71237160003511,None,,,,,,,,,,,,,,,,,,,,,,,,,2,001,2022-09-26_15h38.27.159,test9,2022.1.4,59.93935336798542,
,,,,,,,,1,nBack1Cond.xlsx,111,1,-0.2,0.2,space,1,22,,,,,,,,,,,,,0,0,0,0,0,21,21,21,,,,,,,,,,,,,,,,,,,,,,,,,,,,,,,,,,,,,,,,,,,,,,,,,,,,,,,,,,,,space,63.71196410001721,None,63.71196410001721,64.72684419999132,64.7099445000058,None,63.71196410001721,None,63.71196410001721,None,63.71196410001721,None,63.71196410001721,None,63.71196410001721,None,63.71196410001721,None,63.71196410001721,None,63.71196410001721,None,0.4148756000213325,,,,,,,,,,,,,,,,,,,,,,,,2,001,2022-09-26_15h38.27.159,test9,2022.1.4,59.93935336798542,
,,,,,,,,1,nBack1Cond.xlsx,111,1,-0.2,0.2,space,1,23,,,,,,,,,,,,,0,0,0,0,0,22,22,22,,,,,,,,,,,,,,,,,,,,,,,,,,,,,,,,,,,,,,,,,,,,,,,,,,,,,,,,,,,,space,65.7126419999986,None,65.7126419999986,66.72654120001243,66.71016610000515,None,65.7126419999986,None,65.7126419999986,None,65.7126419999986,None,65.7126419999986,None,65.7126419999986,None,65.7126419999986,None,65.7126419999986,None,65.7126419999986,None,0.5971424000454135,,,,,,,,,,,,,,,,,,,,,,,,2,001,2022-09-26_15h38.27.159,test9,2022.1.4,59.93935336798542,
,,,,,,,,1,nBack1Cond.xlsx,111,3,0.2,0.2,None,1,24,,,,,,,,,,,,,0,0,0,0,0,23,23,23,,,,,,,,,,,,,,,,,,,,,,,,,,,,,,,,,,,,,,,,,,,,,,,,,,,,,,,,,,,,None,67.71301070001209,None,67.71301070001209,68.72642290004296,68.71009480004432,None,67.71301070001209,None,67.71301070001209,None,67.71301070001209,None,67.71301070001209,None,67.71301070001209,None,67.71301070001209,None,67.71301070001209,None,67.71301070001209,None,,,,,,,,,,,,,,,,,,,,,,,,,2,001,2022-09-26_15h38.27.159,test9,2022.1.4,59.93935336798542,
,,,,,,,,1,nBack1Cond.xlsx,111,2,0,0.2,None,1,25,,,,,,,,,,,,,0,0,0,0,0,24,24,24,,,,,,,,,,,,,,,,,,,,,,,,,,,,,,,,,,,,,,,,,,,,,,,,,,,,,,,,,,,,None,69.71211280004354,None,69.71211280004354,70.72693599999184,70.70984890003456,None,69.71211280004354,None,69.71211280004354,None,69.71211280004354,None,69.71211280004354,None,69.71211280004354,None,69.71211280004354,None,69.71211280004354,None,69.71211280004354,None,,,,,,,,,,,,,,,,,,,,,,,,,2,001,2022-09-26_15h38.27.159,test9,2022.1.4,59.93935336798542,
,,,,,,,,1,nBack1Cond.xlsx,111,1,-0.2,0.2,None,1,26,,,,,,,,,,,,,0,0,0,0,0,25,25,25,,,,,,,,,,,,,,,,,,,,,,,,,,,,,,,,,,,,,,,,,,,,,,,,,,,,,,,,,,,,None,71.7135020000278,None,71.7135020000278,72.72691999998642,72.71016990003409,None,71.7135020000278,None,71.7135020000278,None,71.7135020000278,None,71.7135020000278,None,71.7135020000278,None,71.7135020000278,None,71.7135020000278,None,71.7135020000278,None,,,,,,,,,,,,,,,,,,,,,,,,,2,001,2022-09-26_15h38.27.159,test9,2022.1.4,59.93935336798542,
,,,,,,,,1,nBack1Cond.xlsx,111,7,-0.2,-0.2,None,1,27,,,,,,,,,,,,,0,0,0,0,0,26,26,26,,,,,,,,,,,,,,,,,,,,,,,,,,,,,,,,,,,,,,,,,,,,,,,,,,,,,,,,,,,,None,73.71230840001954,None,73.71230840001954,74.72703639999963,74.70996020000894,None,73.71230840001954,None,73.71230840001954,None,73.71230840001954,None,73.71230840001954,None,73.71230840001954,None,73.71230840001954,None,73.71230840001954,None,73.71230840001954,None,,,,,,,,,,,,,,,,,,,,,,,,,2,001,2022-09-26_15h38.27.159,test9,2022.1.4,59.93935336798542,
,,,,,,,,1,nBack1Cond.xlsx,111,7,-0.2,-0.2,space,1,28,,,,,,,,,,,,,0,0,0,0,0,27,27,27,,,,,,,,,,,,,,,,,,,,,,,,,,,,,,,,,,,,,,,,,,,,,,,,,,,,,,,,,,,,space,75.71226330002537,None,75.71226330002537,76.7265167000005,76.71047510002973,None,75.71226330002537,None,75.71226330002537,None,75.71226330002537,None,75.71226330002537,None,75.71226330002537,None,75.71226330002537,None,75.71226330002537,None,75.71226330002537,None,0.5967784999520518,,,,,,,,,,,,,,,,,,,,,,,,2,001,2022-09-26_15h38.27.159,test9,2022.1.4,59.93935336798542,
,,,,,,,,1,nBack1Cond.xlsx,111,2,0,0.2,None,1,29,,,,,,,,,,,,,0,0,0,0,0,28,28,28,,,,,,,,,,,,,,,,,,,,,,,,,,,,,,,,,,,,,,,,,,,,,,,,,,,,,,,,,,,,None,77.69839959999081,None,77.69839959999081,78.7102417999995,78.69325489999028,79.6930991000263,77.69839959999081,None,77.69839959999081,None,77.69839959999081,None,77.69839959999081,None,77.69839959999081,None,77.69839959999081,None,77.69839959999081,None,77.69839959999081,None,,,,,,,,,,,,,,,,,,,,,,,,,2,001,2022-09-26_15h38.27.159,test9,2022.1.4,59.93935336798542,
,,,,,,,,1,nBack1Cond.xlsx,111,6,0.2,0,None,1,30,,,,,,,,,,,,,0,0,0,0,0,29,29,29,,,,,,,,,,,,,,,,,,,,,,,,,,,,,,,,,,,,,,,,,,,,,,,,,,,,,,,,,,,,None,79.71368460002122,None,79.71368460002122,80.72656939999433,80.71042970003327,None,79.71368460002122,None,79.71368460002122,None,79.71368460002122,None,79.71368460002122,None,79.71368460002122,None,79.71368460002122,None,79.71368460002122,None,79.71368460002122,None,,,,,,,,,,,,,,,,,,,,,,,,,2,001,2022-09-26_15h38.27.159,test9,2022.1.4,59.93935336798542,
,,,,,,,,1,nBack1Cond.xlsx,111,4,-0.2,0,None,1,31,,,,,,,,,,,,,0,0,0,0,0,30,30,30,,,,,,,,,,,,,,,,,,,,,,,,,,,,,,,,,,,,,,,,,,,,,,,,,,,,,,,,,,,,None,81.71252210001694,None,81.71252210001694,82.7266101000132,82.71003570000175,None,81.71252210001694,None,81.71252210001694,None,81.71252210001694,None,81.71252210001694,None,81.71252210001694,None,81.71252210001694,None,81.71252210001694,None,81.71252210001694,None,,,,,,,,,,,,,,,,,,,,,,,,,2,001,2022-09-26_15h38.27.159,test9,2022.1.4,59.93935336798542,
,,,,,,,,1,nBack1Cond.xlsx,111,4,-0.2,0,space,1,32,,,,,,,,,,,,,0,0,0,0,0,31,31,31,,,,,,,,,,,,,,,,,,,,,,,,,,,,,,,,,,,,,,,,,,,,,,,,,,,,,,,,,,,,space,83.71387100004358,None,83.71387100004358,84.72649000003003,84.71044250001432,None,83.71387100004358,None,83.71387100004358,None,83.71387100004358,None,83.71387100004358,None,83.71387100004358,None,83.71387100004358,None,83.71387100004358,None,83.71387100004358,None,0.731571999960579,,,,,,,,,,,,,,,,,,,,,,,,2,001,2022-09-26_15h38.27.159,test9,2022.1.4,59.93935336798542,
,,,,,,,,1,nBack1Cond.xlsx,111,2,0,0.2,None,1,33,,,,,,,,,,,,,0,0,0,0,0,32,32,32,,,,,,,,,,,,,,,,,,,,,,,,,,,,,,,,,,,,,,,,,,,,,,,,,,,,,,,,,,,,None,85.71440850000363,None,85.71440850000363,86.72659179999027,86.70993529999396,None,85.71440850000363,None,85.71440850000363,None,85.71440850000363,None,85.71440850000363,None,85.71440850000363,None,85.71440850000363,None,85.71440850000363,None,85.71440850000363,None,,,,,,,,,,,,,,,,,,,,,,,,,2,001,2022-09-26_15h38.27.159,test9,2022.1.4,59.93935336798542,
,,,,,,,,1,nBack1Cond.xlsx,111,9,0.2,-0.2,None,1,34,,,,,,,,,,,,,0,0,0,0,0,33,33,33,,,,,,,,,,,,,,,,,,,,,,,,,,,,,,,,,,,,,,,,,,,,,,,,,,,,,,,,,,,,None,87.7123085000203,None,87.7123085000203,88.72681570000714,88.71013900003163,None,87.7123085000203,None,87.7123085000203,None,87.7123085000203,None,87.7123085000203,None,87.7123085000203,None,87.7123085000203,None,87.7123085000203,None,87.7123085000203,None,,,,,,,,,,,,,,,,,,,,,,,,,2,001,2022-09-26_15h38.27.159,test9,2022.1.4,59.93935336798542,
,,,,,,,,1,nBack1Cond.xlsx,111,9,0.2,-0.2,space,1,35,,,,,,,,,,,,,0,0,0,0,0,34,34,34,,,,,,,,,,,,,,,,,,,,,,,,,,,,,,,,,,,,,,,,,,,,,,,,,,,,,,,,,,,,space,89.71240379998926,None,89.71240379998926,90.72648170002503,90.70980030001374,None,89.71240379998926,None,89.71240379998926,None,89.71240379998926,None,89.71240379998926,None,89.71240379998926,None,89.71240379998926,None,89.71240379998926,None,89.71240379998926,None,0.5891086999909021,,,,,,,,,,,,,,,,,,,,,,,,2,001,2022-09-26_15h38.27.159,test9,2022.1.4,59.93935336798542,
,,,,,,,,1,nBack1Cond.xlsx,111,3,0.2,0.2,None,1,36,,,,,,,,,,,,,0,0,0,0,0,35,35,35,,,,,,,,,,,,,,,,,,,,,,,,,,,,,,,,,,,,,,,,,,,,,,,,,,,,,,,,,,,,None,91.71248970000306,None,91.71248970000306,92.72728440002538,92.71069620002527,None,91.71248970000306,None,91.71248970000306,None,91.71248970000306,None,91.71248970000306,None,91.71248970000306,None,91.71248970000306,None,91.71248970000306,None,91.71248970000306,None,,,,,,,,,,,,,,,,,,,,,,,,,2,001,2022-09-26_15h38.27.159,test9,2022.1.4,59.93935336798542,
,,,,,,,,1,nBack1Cond.xlsx,111,7,-0.2,-0.2,None,1,37,,,,,,,,,,,,,0,0,0,0,0,36,36,36,,,,,,,,,,,,,,,,,,,,,,,,,,,,,,,,,,,,,,,,,,,,,,,,,,,,,,,,,,,,None,93.71206250000978,None,93.71206250000978,94.72712940000929,94.71004060003906,None,93.71206250000978,None,93.71206250000978,None,93.71206250000978,None,93.71206250000978,None,93.71206250000978,None,93.71206250000978,None,93.71206250000978,None,93.71206250000978,None,,,,,,,,,,,,,,,,,,,,,,,,,2,001,2022-09-26_15h38.27.159,test9,2022.1.4,59.93935336798542,
,,,,,,,,1,nBack1Cond.xlsx,111,7,-0.2,-0.2,space,1,38,,,,,,,,,,,,,0,0,0,0,0,37,37,37,,,,,,,,,,,,,,,,,,,,,,,,,,,,,,,,,,,,,,,,,,,,,,,,,,,,,,,,,,,,space,95.7121749999933,None,95.7121749999933,96.72701640002197,96.70997900003567,None,95.7121749999933,None,95.7121749999933,None,95.7121749999933,None,95.7121749999933,None,95.7121749999933,None,95.7121749999933,None,95.7121749999933,None,95.7121749999933,None,0.5972525999532081,,,,,,,,,,,,,,,,,,,,,,,,2,001,2022-09-26_15h38.27.159,test9,2022.1.4,59.93935336798542,
,,,,,,,,1,nBack1Cond.xlsx,111,7,-0.2,-0.2,space,1,39,,,,,,,,,,,,,0,0,0,0,0,38,38,38,,,,,,,,,,,,,,,,,,,,,,,,,,,,,,,,,,,,,,,,,,,,,,,,,,,,,,,,,,,,space,97.71314659999916,None,97.71314659999916,98.72657639998943,98.71044880000409,None,97.71314659999916,None,97.71314659999916,None,97.71314659999916,None,97.71314659999916,None,97.71314659999916,None,97.71314659999916,None,97.71314659999916,None,97.71314659999916,None,1.460820699983742,,,,,,,,,,,,,,,,,,,,,,,,2,001,2022-09-26_15h38.27.159,test9,2022.1.4,59.93935336798542,
,,,,,,,,1,nBack1Cond.xlsx,111,6,0.2,0,None,1,40,,,,,,,,,,,,,0,0,0,0,0,39,39,39,,,,,,,,,,,,,,,,,,,,,,,,,,,,,,,,,,,,,,,,,,,,,,,,,,,,,,,,,,,,None,99.71332149999216,None,99.71332149999216,100.72666330001084,100.71010409999872,None,99.71332149999216,None,99.71332149999216,None,99.71332149999216,None,99.71332149999216,None,99.71332149999216,None,99.71332149999216,None,99.71332149999216,None,99.71332149999216,None,,,,,,,,,,,,,,,,,,,,,,,,,2,001,2022-09-26_15h38.27.159,test9,2022.1.4,59.93935336798542,
,,,,,,,,1,nBack1Cond.xlsx,111,6,0.2,0,space,1,41,,,,,,,,,,,,,0,0,0,0,0,40,40,40,,,,,,,,,,,,,,,,,,,,,,,,,,,,,,,,,,,,,,,,,,,,,,,,,,,,,,,,,,,,space,101.7127804000047,None,101.7127804000047,102.72679849999258,102.71000730001833,None,101.7127804000047,None,101.7127804000047,None,101.7127804000047,None,101.7127804000047,None,101.7127804000047,None,101.7127804000047,None,101.7127804000047,None,101.7127804000047,None,0.6210311999893747,,,,,,,,,,,,,,,,,,,,,,,,2,001,2022-09-26_15h38.27.159,test9,2022.1.4,59.93935336798542,
,,,,,,,,1,nBack1Cond.xlsx,111,1,-0.2,0.2,None,1,42,,,,,,,,,,,,,0,0,0,0,0,41,41,41,,,,,,,,,,,,,,,,,,,,,,,,,,,,,,,,,,,,,,,,,,,,,,,,,,,,,,,,,,,,None,103.71393690002151,None,103.71393690002151,104.7266290000407,104.70992300001672,None,103.71393690002151,None,103.71393690002151,None,103.71393690002151,None,103.71393690002151,None,103.71393690002151,None,103.71393690002151,None,103.71393690002151,None,103.71393690002151,None,,,,,,,,,,,,,,,,,,,,,,,,,2,001,2022-09-26_15h38.27.159,test9,2022.1.4,59.93935336798542,
,,,,,,,,1,nBack1Cond.xlsx,111,5,0,0,None,1,43,,,,,,,,,,,,,0,0,0,0,0,42,42,42,,,,,,,,,,,,,,,,,,,,,,,,,,,,,,,,,,,,,,,,,,,,,,,,,,,,,,,,,,,,None,105.71222039998975,None,105.71222039998975,106.72655070002656,106.70988430001307,None,105.71222039998975,None,105.71222039998975,None,105.71222039998975,None,105.71222039998975,None,105.71222039998975,None,105.71222039998975,None,105.71222039998975,None,105.71222039998975,None,,,,,,,,,,,,,,,,,,,,,,,,,2,001,2022-09-26_15h38.27.159,test9,2022.1.4,59.93935336798542,
,,,,,,,,1,nBack1Cond.xlsx,111,3,0.2,0.2,None,1,44,,,,,,,,,,,,,0,0,0,0,0,43,43,43,,,,,,,,,,,,,,,,,,,,,,,,,,,,,,,,,,,,,,,,,,,,,,,,,,,,,,,,,,,,None,107.712247700023,None,107.712247700023,108.72713980003027,108.7103665000177,None,107.712247700023,None,107.712247700023,None,107.712247700023,None,107.712247700023,None,107.712247700023,None,107.712247700023,None,107.712247700023,None,107.712247700023,None,,,,,,,,,,,,,,,,,,,,,,,,,2,001,2022-09-26_15h38.27.159,test9,2022.1.4,59.93935336798542,
,,,,,,,,1,nBack1Cond.xlsx,111,1,-0.2,0.2,None,1,45,,,,,,,,,,,,,0,0,0,0,0,44,44,44,,,,,,,,,,,,,,,,,,,,,,,,,,,,,,,,,,,,,,,,,,,,,,,,,,,,,,,,,,,,None,109.71257590001915,None,109.71257590001915,110.72682500001974,110.71010110003408,None,109.71257590001915,None,109.71257590001915,None,109.71257590001915,None,109.71257590001915,None,109.71257590001915,None,109.71257590001915,None,109.71257590001915,None,109.71257590001915,None,,,,,,,,,,,,,,,,,,,,,,,,,2,001,2022-09-26_15h38.27.159,test9,2022.1.4,59.93935336798542,
,,,,,,,,1,nBack1Cond.xlsx,111,7,-0.2,-0.2,None,1,46,,,,,,,,,,,,,0,0,0,0,0,45,45,45,,,,,,,,,,,,,,,,,,,,,,,,,,,,,,,,,,,,,,,,,,,,,,,,,,,,,,,,,,,,None,111.71234999998705,None,111.71234999998705,112.72683160001179,112.71051390003413,None,111.71234999998705,None,111.71234999998705,None,111.71234999998705,None,111.71234999998705,None,111.71234999998705,None,111.71234999998705,None,111.71234999998705,None,111.71234999998705,None,,,,,,,,,,,,,,,,,,,,,,,,,2,001,2022-09-26_15h38.27.159,test9,2022.1.4,59.93935336798542,
,,,,,,,,1,nBack1Cond.xlsx,111,3,0.2,0.2,None,1,47,,,,,,,,,,,,,0,0,0,0,0,46,46,46,,,,,,,,,,,,,,,,,,,,,,,,,,,,,,,,,,,,,,,,,,,,,,,,,,,,,,,,,,,,None,113.71415670000715,None,113.71415670000715,114.72694720001891,114.71067090000724,None,113.71415670000715,None,113.71415670000715,None,113.71415670000715,None,113.71415670000715,None,113.71415670000715,None,113.71415670000715,None,113.71415670000715,None,113.71415670000715,None,,,,,,,,,,,,,,,,,,,,,,,,,2,001,2022-09-26_15h38.27.159,test9,2022.1.4,59.93935336798542,
,,,,,,,,1,nBack1Cond.xlsx,111,3,0.2,0.2,space,1,48,,,,,,,,,,,,,0,0,0,0,0,47,47,47,,,,,,,,,,,,,,,,,,,,,,,,,,,,,,,,,,,,,,,,,,,,,,,,,,,,,,,,,,,,space,115.71160810004221,None,115.71160810004221,116.72693220002111,116.71038760000374,None,115.71160810004221,None,115.71160810004221,None,115.71160810004221,None,115.71160810004221,None,115.71160810004221,None,115.71160810004221,None,115.71160810004221,None,115.71160810004221,None,0.5031321999849752,,,,,,,,,,,,,,,,,,,,,,,,2,001,2022-09-26_15h38.27.159,test9,2022.1.4,59.93935336798542,
,,,,,,,,1,nBack1Cond.xlsx,111,9,0.2,-0.2,None,1,49,,,,,,,,,,,,,0,0,0,0,0,48,48,48,,,,,,,,,,,,,,,,,,,,,,,,,,,,,,,,,,,,,,,,,,,,,,,,,,,,,,,,,,,,None,117.7123406000319,None,117.7123406000319,118.72668290004367,118.70995310001308,None,117.7123406000319,None,117.7123406000319,None,117.7123406000319,None,117.7123406000319,None,117.7123406000319,None,117.7123406000319,None,117.7123406000319,None,117.7123406000319,None,,,,,,,,,,,,,,,,,,,,,,,,,2,001,2022-09-26_15h38.27.159,test9,2022.1.4,59.93935336798542,
,,,,,,,,1,nBack1Cond.xlsx,111,7,-0.2,-0.2,None,1,50,,,,,,,,,,,,,0,0,0,0,0,49,49,49,,,,,,,,,,,,,,,,,,,,,,,,,,,,,,,,,,,,,,,,,,,,,,,,,,,,,,,,,,,,None,119.71331180003472,None,119.71331180003472,120.72654709999915,120.70997680001892,None,119.71331180003472,None,119.71331180003472,None,119.71331180003472,None,119.71331180003472,None,119.71331180003472,None,119.71331180003472,None,119.71331180003472,None,119.71331180003472,None,,,,,,,,,,,,,,,,,,,,,,,,,2,001,2022-09-26_15h38.27.159,test9,2022.1.4,59.93935336798542,
,,,,,,,,1,nBack1Cond.xlsx,111,5,0,0,None,1,51,,,,,,,,,,,,,0,0,0,0,0,50,50,50,,,,,,,,,,,,,,,,,,,,,,,,,,,,,,,,,,,,,,,,,,,,,,,,,,,,,,,,,,,,None,121.71347180003067,None,121.71347180003067,122.7265946000116,122.7102040000027,None,121.71347180003067,None,121.71347180003067,None,121.71347180003067,None,121.71347180003067,None,121.71347180003067,None,121.71347180003067,None,121.71347180003067,None,121.71347180003067,None,,,,,,,,,,,,,,,,,,,,,,,,,2,001,2022-09-26_15h38.27.159,test9,2022.1.4,59.93935336798542,
,,,,,,,,1,nBack1Cond.xlsx,111,8,0,-0.2,None,1,52,,,,,,,,,,,,,0,0,0,0,0,51,51,51,,,,,,,,,,,,,,,,,,,,,,,,,,,,,,,,,,,,,,,,,,,,,,,,,,,,,,,,,,,,None,123.71226940001361,None,123.71226940001361,124.72668010002235,124.71012890001293,None,123.71226940001361,None,123.71226940001361,None,123.71226940001361,None,123.71226940001361,None,123.71226940001361,None,123.71226940001361,None,123.71226940001361,None,123.71226940001361,None,,,,,,,,,,,,,,,,,,,,,,,,,2,001,2022-09-26_15h38.27.159,test9,2022.1.4,59.93935336798542,
,,,,,,,,1,nBack1Cond.xlsx,111,8,0,-0.2,space,1,53,,,,,,,,,,,,,0,0,0,0,0,52,52,52,,,,,,,,,,,,,,,,,,,,,,,,,,,,,,,,,,,,,,,,,,,,,,,,,,,,,,,,,,,,space,125.71264000004157,None,125.71264000004157,126.7266973000369,126.71008260000963,None,125.71264000004157,None,125.71264000004157,None,125.71264000004157,None,125.71264000004157,None,125.71264000004157,None,125.71264000004157,None,125.71264000004157,None,125.71264000004157,None,0.6695212000049651,,,,,,,,,,,,,,,,,,,,,,,,2,001,2022-09-26_15h38.27.159,test9,2022.1.4,59.93935336798542,
,,,,,,,,1,nBack1Cond.xlsx,111,7,-0.2,-0.2,None,1,54,,,,,,,,,,,,,0,0,0,0,0,53,53,53,,,,,,,,,,,,,,,,,,,,,,,,,,,,,,,,,,,,,,,,,,,,,,,,,,,,,,,,,,,,None,127.71266620000824,None,127.71266620000824,128.72722619998967,128.71045489999233,None,127.71266620000824,None,127.71266620000824,None,127.71266620000824,None,127.71266620000824,None,127.71266620000824,None,127.71266620000824,None,127.71266620000824,None,127.71266620000824,None,,,,,,,,,,,,,,,,,,,,,,,,,2,001,2022-09-26_15h38.27.159,test9,2022.1.4,59.93935336798542,
,,,,,,,,1,nBack1Cond.xlsx,111,4,-0.2,0,None,1,55,,,,,,,,,,,,,0,0,0,0,0,54,54,54,,,,,,,,,,,,,,,,,,,,,,,,,,,,,,,,,,,,,,,,,,,,,,,,,,,,,,,,,,,,None,129.7122006000136,None,129.7122006000136,130.72681610001018,130.7111414000392,None,129.7122006000136,None,129.7122006000136,None,129.7122006000136,None,129.7122006000136,None,129.7122006000136,None,129.7122006000136,None,129.7122006000136,None,129.7122006000136,None,,,,,,,,,,,,,,,,,,,,,,,,,2,001,2022-09-26_15h38.27.159,test9,2022.1.4,59.93935336798542,
,,,,,,,,1,nBack1Cond.xlsx,111,5,0,0,None,1,56,,,,,,,,,,,,,0,0,0,0,0,55,55,55,,,,,,,,,,,,,,,,,,,,,,,,,,,,,,,,,,,,,,,,,,,,,,,,,,,,,,,,,,,,None,131.71416219999082,None,131.71416219999082,132.7269679000019,132.7102780000423,None,131.71416219999082,None,131.71416219999082,None,131.71416219999082,None,131.71416219999082,None,131.71416219999082,None,131.71416219999082,None,131.71416219999082,None,131.71416219999082,None,,,,,,,,,,,,,,,,,,,,,,,,,2,001,2022-09-26_15h38.27.159,test9,2022.1.4,59.93935336798542,
,,,,,,,,1,nBack1Cond.xlsx,111,5,0,0,space,1,57,,,,,,,,,,,,,0,0,0,0,0,56,56,56,,,,,,,,,,,,,,,,,,,,,,,,,,,,,,,,,,,,,,,,,,,,,,,,,,,,,,,,,,,,space,133.71288559999084,None,133.71288559999084,134.7266227999935,134.71023259998765,None,133.71288559999084,None,133.71288559999084,None,133.71288559999084,None,133.71288559999084,None,133.71288559999084,None,133.71288559999084,None,133.71288559999084,None,133.71288559999084,None,0.6447269999771379,,,,,,,,,,,,,,,,,,,,,,,,2,001,2022-09-26_15h38.27.159,test9,2022.1.4,59.93935336798542,
,,,,,,,,1,nBack1Cond.xlsx,111,2,0,0.2,None,1,58,,,,,,,,,,,,,0,0,0,0,0,57,57,57,,,,,,,,,,,,,,,,,,,,,,,,,,,,,,,,,,,,,,,,,,,,,,,,,,,,,,,,,,,,None,135.7140275000129,None,135.7140275000129,136.7267560000182,136.71055790001992,None,135.7140275000129,None,135.7140275000129,None,135.7140275000129,None,135.7140275000129,None,135.7140275000129,None,135.7140275000129,None,135.7140275000129,None,135.7140275000129,None,,,,,,,,,,,,,,,,,,,,,,,,,2,001,2022-09-26_15h38.27.159,test9,2022.1.4,59.93935336798542,
,,,,,,,,1,nBack1Cond.xlsx,111,2,0,0.2,space,1,59,,,,,,,,,,,,,0,0,0,0,0,58,58,58,,,,,,,,,,,,,,,,,,,,,,,,,,,,,,,,,,,,,,,,,,,,,,,,,,,,,,,,,,,,space,137.71296770003391,None,137.71296770003391,138.7268536000047,138.710204300005,None,137.71296770003391,None,137.71296770003391,None,137.71296770003391,None,137.71296770003391,None,137.71296770003391,None,137.71296770003391,None,137.71296770003391,None,137.71296770003391,None,0.748493299994152,,,,,,,,,,,,,,,,,,,,,,,,2,001,2022-09-26_15h38.27.159,test9,2022.1.4,59.93935336798542,
,,,,,,,,1,nBack1Cond.xlsx,111,6,0.2,0,None,1,60,,,,,,,,,,,,,0,0,0,0,0,59,59,59,,,,,,,,,,,,,,,,,,,,,,,,,,,,,,,,,,,,,,,,,,,,,,,,,,,,,,,,,,,,None,139.71397139999317,None,139.71397139999317,140.72670070000459,140.71045720000984,None,139.71397139999317,None,139.71397139999317,None,139.71397139999317,None,139.71397139999317,None,139.71397139999317,None,139.71397139999317,None,139.71397139999317,None,139.71397139999317,None,,,,,,,,,,,,,,,,,,,,,,,,,2,001,2022-09-26_15h38.27.159,test9,2022.1.4,59.93935336798542,
,,,,,,,,1,nBack1Cond.xlsx,111,2,0,0.2,None,1,61,,,,,,,,,,,,,0,0,0,0,0,60,60,60,,,,,,,,,,,,,,,,,,,,,,,,,,,,,,,,,,,,,,,,,,,,,,,,,,,,,,,,,,,,None,141.71311320003588,None,141.71311320003588,142.72672040003818,142.71014390001073,None,141.71311320003588,None,141.71311320003588,None,141.71311320003588,None,141.71311320003588,None,141.71311320003588,None,141.71311320003588,None,141.71311320003588,None,141.71311320003588,None,,,,,,,,,,,,,,,,,,,,,,,,,2,001,2022-09-26_15h38.27.159,test9,2022.1.4,59.93935336798542,
,,,,,,,,1,nBack1Cond.xlsx,111,2,0,0.2,space,1,62,,,,,,,,,,,,,0,0,0,0,0,61,61,61,,,,,,,,,,,,,,,,,,,,,,,,,,,,,,,,,,,,,,,,,,,,,,,,,,,,,,,,,,,,space,143.71286700002383,None,143.71286700002383,144.7270093000261,144.7103175999946,None,143.71286700002383,None,143.71286700002383,None,143.71286700002383,None,143.71286700002383,None,143.71286700002383,None,143.71286700002383,None,143.71286700002383,None,143.71286700002383,None,0.5005010000313632,,,,,,,,,,,,,,,,,,,,,,,,2,001,2022-09-26_15h38.27.159,test9,2022.1.4,59.93935336798542,
,,,,,,,,1,nBack1Cond.xlsx,111,5,0,0,None,1,63,,,,,,,,,,,,,0,0,0,0,0,62,62,62,,,,,,,,,,,,,,,,,,,,,,,,,,,,,,,,,,,,,,,,,,,,,,,,,,,,,,,,,,,,None,145.7128173999954,None,145.7128173999954,146.72701080003753,146.7100172000355,None,145.7128173999954,None,145.7128173999954,None,145.7128173999954,None,145.7128173999954,None,145.7128173999954,None,145.7128173999954,None,145.7128173999954,None,145.7128173999954,None,,,,,,,,,,,,,,,,,,,,,,,,,2,001,2022-09-26_15h38.27.159,test9,2022.1.4,59.93935336798542,
,,,,,,,,1,nBack1Cond.xlsx,111,5,0,0,space,1,64,,,,,,,,,,,,,0,0,0,0,0,63,63,63,,,,,,,,,,,,,,,,,,,,,,,,,,,,,,,,,,,,,,,,,,,,,,,,,,,,,,,,,,,,space,147.7124218000099,None,147.7124218000099,148.7267498000292,148.7099538000184,None,147.7124218000099,None,147.7124218000099,None,147.7124218000099,None,147.7124218000099,None,147.7124218000099,None,147.7124218000099,None,147.7124218000099,None,147.7124218000099,None,0.5813019000343047,,,,,,,,,,,,,,,,,,,,,,,,2,001,2022-09-26_15h38.27.159,test9,2022.1.4,59.93935336798542,
,,,,,,,,1,nBack1Cond.xlsx,111,4,-0.2,0,None,1,65,,,,,,,,,,,,,0,0,0,0,0,64,64,64,,,,,,,,,,,,,,,,,,,,,,,,,,,,,,,,,,,,,,,,,,,,,,,,,,,,,,,,,,,,None,149.71290300000692,None,149.71290300000692,150.72674810001627,150.7103753000265,None,149.71290300000692,None,149.71290300000692,None,149.71290300000692,None,149.71290300000692,None,149.71290300000692,None,149.71290300000692,None,149.71290300000692,None,149.71290300000692,None,,,,,,,,,,,,,,,,,,,,,,,,,2,001,2022-09-26_15h38.27.159,test9,2022.1.4,59.93935336798542,
,,,,,,,,1,nBack1Cond.xlsx,111,7,-0.2,-0.2,None,1,66,,,,,,,,,,,,,0,0,0,0,0,65,65,65,,,,,,,,,,,,,,,,,,,,,,,,,,,,,,,,,,,,,,,,,,,,,,,,,,,,,,,,,,,,None,151.71270060003735,None,151.71270060003735,152.72664589999476,152.71009569999296,None,151.71270060003735,None,151.71270060003735,None,151.71270060003735,None,151.71270060003735,None,151.71270060003735,None,151.71270060003735,None,151.71270060003735,None,151.71270060003735,None,,,,,,,,,,,,,,,,,,,,,,,,,2,001,2022-09-26_15h38.27.159,test9,2022.1.4,59.93935336798542,
,,,,,,,,1,nBack1Cond.xlsx,111,8,0,-0.2,None,1,67,,,,,,,,,,,,,0,0,0,0,0,66,66,66,,,,,,,,,,,,,,,,,,,,,,,,,,,,,,,,,,,,,,,,,,,,,,,,,,,,,,,,,,,,None,153.71284890000243,None,153.71284890000243,154.72672090004198,154.7104410000029,None,153.71284890000243,None,153.71284890000243,None,153.71284890000243,None,153.71284890000243,None,153.71284890000243,None,153.71284890000243,None,153.71284890000243,None,153.71284890000243,None,,,,,,,,,,,,,,,,,,,,,,,,,2,001,2022-09-26_15h38.27.159,test9,2022.1.4,59.93935336798542,
,,,,,,,,1,nBack1Cond.xlsx,111,8,0,-0.2,space,1,68,,,,,,,,,,,,,0,0,0,0,0,67,67,67,,,,,,,,,,,,,,,,,,,,,,,,,,,,,,,,,,,,,,,,,,,,,,,,,,,,,,,,,,,,space,155.7139937999891,None,155.7139937999891,156.7267258000211,156.71049269998912,None,155.7139937999891,None,155.7139937999891,None,155.7139937999891,None,155.7139937999891,None,155.7139937999891,None,155.7139937999891,None,155.7139937999891,None,155.7139937999891,None,0.5954283999744803,,,,,,,,,,,,,,,,,,,,,,,,2,001,2022-09-26_15h38.27.159,test9,2022.1.4,59.93935336798542,
,,,,,,,,1,nBack1Cond.xlsx,111,5,0,0,None,1,69,,,,,,,,,,,,,0,0,0,0,0,68,68,68,,,,,,,,,,,,,,,,,,,,,,,,,,,,,,,,,,,,,,,,,,,,,,,,,,,,,,,,,,,,None,157.7133051000419,None,157.7133051000419,158.7266595000401,158.7106089000008,None,157.7133051000419,None,157.7133051000419,None,157.7133051000419,None,157.7133051000419,None,157.7133051000419,None,157.7133051000419,None,157.7133051000419,None,157.7133051000419,None,,,,,,,,,,,,,,,,,,,,,,,,,2,001,2022-09-26_15h38.27.159,test9,2022.1.4,59.93935336798542,
,,,,,,,,1,nBack1Cond.xlsx,111,7,-0.2,-0.2,None,1,70,,,,,,,,,,,,,0,0,0,0,0,69,69,69,,,,,,,,,,,,,,,,,,,,,,,,,,,,,,,,,,,,,,,,,,,,,,,,,,,,,,,,,,,,None,159.71382030000677,None,159.71382030000677,160.72677460004343,160.71044210001128,None,159.71382030000677,None,159.71382030000677,None,159.71382030000677,None,159.71382030000677,None,159.71382030000677,None,159.71382030000677,None,159.71382030000677,None,159.71382030000677,None,,,,,,,,,,,,,,,,,,,,,,,,,2,001,2022-09-26_15h38.27.159,test9,2022.1.4,59.93935336798542,
,,,,,,,,1,nBack1Cond.xlsx,111,9,0.2,-0.2,None,1,71,,,,,,,,,,,,,0,0,0,0,0,70,70,70,,,,,,,,,,,,,,,,,,,,,,,,,,,,,,,,,,,,,,,,,,,,,,,,,,,,,,,,,,,,None,161.71352680004202,None,161.71352680004202,162.72722440003417,162.71007150004152,None,161.71352680004202,None,161.71352680004202,None,161.71352680004202,None,161.71352680004202,None,161.71352680004202,None,161.71352680004202,None,161.71352680004202,None,161.71352680004202,None,,,,,,,,,,,,,,,,,,,,,,,,,2,001,2022-09-26_15h38.27.159,test9,2022.1.4,59.93935336798542,
,,,,,,,,1,nBack1Cond.xlsx,111,3,0.2,0.2,None,1,72,,,,,,,,,,,,,0,0,0,0,0,71,71,71,,,,,,,,,,,,,,,,,,,,,,,,,,,,,,,,,,,,,,,,,,,,,,,,,,,,,,,,,,,,None,163.71245759999147,None,163.71245759999147,164.72689690004336,164.71038790000603,None,163.71245759999147,None,163.71245759999147,None,163.71245759999147,None,163.71245759999147,None,163.71245759999147,None,163.71245759999147,None,163.71245759999147,None,163.71245759999147,None,,,,,,,,,,,,,,,,,,,,,,,,,2,001,2022-09-26_15h38.27.159,test9,2022.1.4,59.93935336798542,
,,,,,,,,1,nBack1Cond.xlsx,111,3,0.2,0.2,space,1,73,,,,,,,,,,,,,0,0,0,0,0,72,72,72,,,,,,,,,,,,,,,,,,,,,,,,,,,,,,,,,,,,,,,,,,,,,,,,,,,,,,,,,,,,space,165.71215680002933,None,165.71215680002933,166.72674650000408,166.71022040001117,None,165.71215680002933,None,165.71215680002933,None,165.71215680002933,None,165.71215680002933,None,165.71215680002933,None,165.71215680002933,None,165.71215680002933,None,165.71215680002933,None,0.5655562999891117,,,,,,,,,,,,,,,,,,,,,,,,2,001,2022-09-26_15h38.27.159,test9,2022.1.4,59.93935336798542,
,,,,,,,,1,nBack1Cond.xlsx,111,7,-0.2,-0.2,None,1,74,,,,,,,,,,,,,0,0,0,0,0,73,73,73,,,,,,,,,,,,,,,,,,,,,,,,,,,,,,,,,,,,,,,,,,,,,,,,,,,,,,,,,,,,None,167.7122445999994,None,167.7122445999994,168.7267986999941,168.70995049999328,None,167.7122445999994,None,167.7122445999994,None,167.7122445999994,None,167.7122445999994,None,167.7122445999994,None,167.7122445999994,None,167.7122445999994,None,167.7122445999994,None,,,,,,,,,,,,,,,,,,,,,,,,,2,001,2022-09-26_15h38.27.159,test9,2022.1.4,59.93935336798542,
,,,,,,,,1,nBack1Cond.xlsx,111,1,-0.2,0.2,None,1,75,,,,,,,,,,,,,0,0,0,0,0,74,74,74,,,,,,,,,,,,,,,,,,,,,,,,,,,,,,,,,,,,,,,,,,,,,,,,,,,,,,,,,,,,None,169.71203340002103,None,169.71203340002103,170.72725080000237,170.71059070003685,None,169.71203340002103,None,169.71203340002103,None,169.71203340002103,None,169.71203340002103,None,169.71203340002103,None,169.71203340002103,None,169.71203340002103,None,169.71203340002103,None,,,,,,,,,,,,,,,,,,,,,,,,,2,001,2022-09-26_15h38.27.159,test9,2022.1.4,59.93935336798542,
,,,,,,,,1,nBack1Cond.xlsx,111,3,0.2,0.2,None,1,76,,,,,,,,,,,,,0,0,0,0,0,75,75,75,,,,,,,,,,,,,,,,,,,,,,,,,,,,,,,,,,,,,,,,,,,,,,,,,,,,,,,,,,,,None,171.7138065000181,None,171.7138065000181,172.7268269000342,172.71044270001585,None,171.7138065000181,None,171.7138065000181,None,171.7138065000181,None,171.7138065000181,None,171.7138065000181,None,171.7138065000181,None,171.7138065000181,None,171.7138065000181,None,,,,,,,,,,,,,,,,,,,,,,,,,2,001,2022-09-26_15h38.27.159,test9,2022.1.4,59.93935336798542,
,,,,,,,,1,nBack1Cond.xlsx,111,5,0,0,None,1,77,,,,,,,,,,,,,0,0,0,0,0,76,76,76,,,,,,,,,,,,,,,,,,,,,,,,,,,,,,,,,,,,,,,,,,,,,,,,,,,,,,,,,,,,None,173.7130227999878,None,173.7130227999878,174.72687810001662,174.71010409999872,None,173.7130227999878,None,173.7130227999878,None,173.7130227999878,None,173.7130227999878,None,173.7130227999878,None,173.7130227999878,None,173.7130227999878,None,173.7130227999878,None,,,,,,,,,,,,,,,,,,,,,,,,,2,001,2022-09-26_15h38.27.159,test9,2022.1.4,59.93935336798542,
,,,,,,,,1,nBack1Cond.xlsx,111,1,-0.2,0.2,None,1,78,,,,,,,,,,,,,0,0,0,0,0,77,77,77,,,,,,,,,,,,,,,,,,,,,,,,,,,,,,,,,,,,,,,,,,,,,,,,,,,,,,,,,,,,None,175.69820650003385,None,175.69820650003385,176.7103036000044,176.6933640000061,177.69345600000815,175.69820650003385,None,175.69820650003385,None,175.69820650003385,None,175.69820650003385,None,175.69820650003385,None,175.69820650003385,None,175.69820650003385,None,175.69820650003385,None,,,,,,,,,,,,,,,,,,,,,,,,,2,001,2022-09-26_15h38.27.159,test9,2022.1.4,59.93935336798542,
,,,,,,,,1,nBack1Cond.xlsx,111,6,0.2,0,None,1,79,,,,,,,,,,,,,0,0,0,0,0,78,78,78,,,,,,,,,,,,,,,,,,,,,,,,,,,,,,,,,,,,,,,,,,,,,,,,,,,,,,,,,,,,None,177.71475510002347,None,177.71475510002347,178.7267775000073,178.7101277000038,None,177.71475510002347,None,177.71475510002347,None,177.71475510002347,None,177.71475510002347,None,177.71475510002347,None,177.71475510002347,None,177.71475510002347,None,177.71475510002347,None,,,,,,,,,,,,,,,,,,,,,,,,,2,001,2022-09-26_15h38.27.159,test9,2022.1.4,59.93935336798542,
,,,,,,,,1,nBack1Cond.xlsx,111,6,0.2,0,space,1,80,,,,,,,,,,,,,0,0,0,0,0,79,79,79,,,,,,,,,,,,,,,,,,,,,,,,,,,,,,,,,,,,,,,,,,,,,,,,,,,,,,,,,,,,space,179.71267390000867,None,179.71267390000867,180.7268409000244,180.7102221000241,None,179.71267390000867,None,179.71267390000867,None,179.71267390000867,None,179.71267390000867,None,179.71267390000867,None,179.71267390000867,None,179.71267390000867,None,179.71267390000867,None,0.38142240000888705,,,,,,,,,,,,,,,,,,,,,,,,2,001,2022-09-26_15h38.27.159,test9,2022.1.4,59.93935336798542,
,,,,,,,,1,nBack1Cond.xlsx,111,7,-0.2,-0.2,None,1,81,,,,,,,,,,,,,0,0,0,0,0,80,80,80,,,,,,,,,,,,,,,,,,,,,,,,,,,,,,,,,,,,,,,,,,,,,,,,,,,,,,,,,,,,None,181.712050000031,None,181.712050000031,182.7268559000222,182.71017670002766,None,181.712050000031,None,181.712050000031,None,181.712050000031,None,181.712050000031,None,181.712050000031,None,181.712050000031,None,181.712050000031,None,181.712050000031,None,,,,,,,,,,,,,,,,,,,,,,,,,2,001,2022-09-26_15h38.27.159,test9,2022.1.4,59.93935336798542,
,,,,,,,,1,nBack1Cond.xlsx,111,7,-0.2,-0.2,space,1,82,,,,,,,,,,,,,0,0,0,0,0,81,81,81,,,,,,,,,,,,,,,,,,,,,,,,,,,,,,,,,,,,,,,,,,,,,,,,,,,,,,,,,,,,space,183.71192620001966,None,183.71192620001966,184.72730680002132,184.71017909998773,None,183.71192620001966,None,183.71192620001966,None,183.71192620001966,None,183.71192620001966,None,183.71192620001966,None,183.71192620001966,None,183.71192620001966,None,183.71192620001966,None,0.5898862000321969,,,,,,,,,,,,,,,,,,,,,,,,2,001,2022-09-26_15h38.27.159,test9,2022.1.4,59.93935336798542,
,,,,,,,,1,nBack1Cond.xlsx,111,7,-0.2,-0.2,space,1,83,,,,,,,,,,,,,0,0,0,0,0,82,82,82,,,,,,,,,,,,,,,,,,,,,,,,,,,,,,,,,,,,,,,,,,,,,,,,,,,,,,,,,,,,space,185.71583729999838,None,185.71583729999838,186.7266682999907,186.71001290000277,None,185.71583729999838,None,185.71583729999838,None,185.71583729999838,None,185.71583729999838,None,185.71583729999838,None,185.71583729999838,None,185.71583729999838,None,185.71583729999838,None,0.6022263999911956,,,,,,,,,,,,,,,,,,,,,,,,2,001,2022-09-26_15h38.27.159,test9,2022.1.4,59.93935336798542,
,,,,,,,,1,nBack1Cond.xlsx,111,3,0.2,0.2,None,1,84,,,,,,,,,,,,,0,0,0,0,0,83,83,83,,,,,,,,,,,,,,,,,,,,,,,,,,,,,,,,,,,,,,,,,,,,,,,,,,,,,,,,,,,,None,187.6993049000157,None,187.6993049000157,188.71031930000754,188.69335310003953,189.6936393000069,187.6993049000157,None,187.6993049000157,None,187.6993049000157,None,187.6993049000157,None,187.6993049000157,None,187.6993049000157,None,187.6993049000157,None,187.6993049000157,None,,,,,,,,,,,,,,,,,,,,,,,,,2,001,2022-09-26_15h38.27.159,test9,2022.1.4,59.93935336798542,
,,,,,,,,1,nBack1Cond.xlsx,111,9,0.2,-0.2,None,1,85,,,,,,,,,,,,,0,0,0,0,0,84,84,84,,,,,,,,,,,,,,,,,,,,,,,,,,,,,,,,,,,,,,,,,,,,,,,,,,,,,,,,,,,,None,189.7127613000339,None,189.7127613000339,190.7271355999983,190.710027299996,None,189.7127613000339,None,189.7127613000339,None,189.7127613000339,None,189.7127613000339,None,189.7127613000339,None,189.7127613000339,None,189.7127613000339,None,189.7127613000339,None,,,,,,,,,,,,,,,,,,,,,,,,,2,001,2022-09-26_15h38.27.159,test9,2022.1.4,59.93935336798542,
,,,,,,,,1,nBack1Cond.xlsx,111,9,0.2,-0.2,space,1,86,,,,,,,,,,,,,0,0,0,0,0,85,85,85,,,,,,,,,,,,,,,,,,,,,,,,,,,,,,,,,,,,,,,,,,,,,,,,,,,,,,,,,,,,space,191.71488680003677,None,191.71488680003677,192.7270078000147,192.71058130002348,None,191.71488680003677,None,191.71488680003677,None,191.71488680003677,None,191.71488680003677,None,191.71488680003677,None,191.71488680003677,None,191.71488680003677,None,191.71488680003677,None,0.5867923999903724,,,,,,,,,,,,,,,,,,,,,,,,2,001,2022-09-26_15h38.27.159,test9,2022.1.4,59.93935336798542,
,,,,,,,,1,nBack1Cond.xlsx,111,2,0,0.2,None,1,87,,,,,,,,,,,,,0,0,0,0,0,86,86,86,,,,,,,,,,,,,,,,,,,,,,,,,,,,,,,,,,,,,,,,,,,,,,,,,,,,,,,,,,,,None,193.713032700005,None,193.713032700005,194.7267079000012,194.71029469999485,None,193.713032700005,None,193.713032700005,None,193.713032700005,None,193.713032700005,None,193.713032700005,None,193.713032700005,None,193.713032700005,None,193.713032700005,None,,,,,,,,,,,,,,,,,,,,,,,,,2,001,2022-09-26_15h38.27.159,test9,2022.1.4,59.93935336798542,
,,,,,,,,1,nBack1Cond.xlsx,111,4,-0.2,0,None,1,88,,,,,,,,,,,,,0,0,0,0,0,87,87,87,,,,,,,,,,,,,,,,,,,,,,,,,,,,,,,,,,,,,,,,,,,,,,,,,,,,,,,,,,,,None,195.7137708000373,None,195.7137708000373,196.72673860000214,196.71047400002135,None,195.7137708000373,None,195.7137708000373,None,195.7137708000373,None,195.7137708000373,None,195.7137708000373,None,195.7137708000373,None,195.7137708000373,None,195.7137708000373,None,,,,,,,,,,,,,,,,,,,,,,,,,2,001,2022-09-26_15h38.27.159,test9,2022.1.4,59.93935336798542,
,,,,,,,,1,nBack1Cond.xlsx,111,4,-0.2,0,space,1,89,,,,,,,,,,,,,0,0,0,0,0,88,88,88,,,,,,,,,,,,,,,,,,,,,,,,,,,,,,,,,,,,,,,,,,,,,,,,,,,,,,,,,,,,space,197.71442570001818,None,197.71442570001818,198.7275449000299,198.7101476000389,None,197.71442570001818,None,197.71442570001818,None,197.71442570001818,None,197.71442570001818,None,197.71442570001818,None,197.71442570001818,None,197.71442570001818,None,197.71442570001818,None,0.5227309000329114,,,,,,,,,,,,,,,,,,,,,,,,2,001,2022-09-26_15h38.27.159,test9,2022.1.4,59.93935336798542,
,,,,,,,,1,nBack1Cond.xlsx,111,6,0.2,0,None,1,90,,,,,,,,,,,,,0,0,0,0,0,89,89,89,,,,,,,,,,,,,,,,,,,,,,,,,,,,,,,,,,,,,,,,,,,,,,,,,,,,,,,,,,,,None,199.71406690002186,None,199.71406690002186,200.7270784000284,200.7104687000392,None,199.71406690002186,None,199.71406690002186,None,199.71406690002186,None,199.71406690002186,None,199.71406690002186,None,199.71406690002186,None,199.71406690002186,None,199.71406690002186,None,,,,,,,,,,,,,,,,,,,,,,,,,2,001,2022-09-26_15h38.27.159,test9,2022.1.4,59.93935336798542,
,,,,,,,,1,nBack1Cond.xlsx,111,2,0,0.2,None,1,91,,,,,,,,,,,,,0,0,0,0,0,90,90,90,,,,,,,,,,,,,,,,,,,,,,,,,,,,,,,,,,,,,,,,,,,,,,,,,,,,,,,,,,,,None,201.71274590003304,None,201.71274590003304,202.7270070000086,202.71034960000543,None,201.71274590003304,None,201.71274590003304,None,201.71274590003304,None,201.71274590003304,None,201.71274590003304,None,201.71274590003304,None,201.71274590003304,None,201.71274590003304,None,,,,,,,,,,,,,,,,,,,,,,,,,2,001,2022-09-26_15h38.27.159,test9,2022.1.4,59.93935336798542,
,,,,,,,,1,nBack1Cond.xlsx,111,7,-0.2,-0.2,None,1,92,,,,,,,,,,,,,0,0,0,0,0,91,91,91,,,,,,,,,,,,,,,,,,,,,,,,,,,,,,,,,,,,,,,,,,,,,,,,,,,,,,,,,,,,None,203.71446400001878,None,203.71446400001878,204.72710260003805,204.71048250002787,None,203.71446400001878,None,203.71446400001878,None,203.71446400001878,None,203.71446400001878,None,203.71446400001878,None,203.71446400001878,None,203.71446400001878,None,203.71446400001878,None,,,,,,,,,,,,,,,,,,,,,,,,,2,001,2022-09-26_15h38.27.159,test9,2022.1.4,59.93935336798542,
,,,,,,,,1,nBack1Cond.xlsx,111,7,-0.2,-0.2,space,1,93,,,,,,,,,,,,,0,0,0,0,0,92,92,92,,,,,,,,,,,,,,,,,,,,,,,,,,,,,,,,,,,,,,,,,,,,,,,,,,,,,,,,,,,,space,205.71280510001816,None,205.71280510001816,206.72693679999793,206.71040800004266,None,205.71280510001816,None,205.71280510001816,None,205.71280510001816,None,205.71280510001816,None,205.71280510001816,None,205.71280510001816,None,205.71280510001816,None,205.71280510001816,None,0.38908819999778643,,,,,,,,,,,,,,,,,,,,,,,,2,001,2022-09-26_15h38.27.159,test9,2022.1.4,59.93935336798542,
,,,,,,,,1,nBack1Cond.xlsx,111,1,-0.2,0.2,None,1,94,,,,,,,,,,,,,0,0,0,0,0,93,93,93,,,,,,,,,,,,,,,,,,,,,,,,,,,,,,,,,,,,,,,,,,,,,,,,,,,,,,,,,,,,None,207.71194720000494,None,207.71194720000494,208.72663200000534,208.71026880003046,None,207.71194720000494,None,207.71194720000494,None,207.71194720000494,None,207.71194720000494,None,207.71194720000494,None,207.71194720000494,None,207.71194720000494,None,207.71194720000494,None,,,,,,,,,,,,,,,,,,,,,,,,,2,001,2022-09-26_15h38.27.159,test9,2022.1.4,59.93935336798542,
,,,,,,,,1,nBack1Cond.xlsx,111,2,0,0.2,None,1,95,,,,,,,,,,,,,0,0,0,0,0,94,94,94,,,,,,,,,,,,,,,,,,,,,,,,,,,,,,,,,,,,,,,,,,,,,,,,,,,,,,,,,,,,None,209.71254070004215,None,209.71254070004215,210.72692009998718,210.71032170002582,None,209.71254070004215,None,209.71254070004215,None,209.71254070004215,None,209.71254070004215,None,209.71254070004215,None,209.71254070004215,None,209.71254070004215,None,209.71254070004215,None,,,,,,,,,,,,,,,,,,,,,,,,,2,001,2022-09-26_15h38.27.159,test9,2022.1.4,59.93935336798542,
,,,,,,,,1,nBack1Cond.xlsx,111,3,0.2,0.2,None,1,96,,,,,,,,,,,,,0,0,0,0,0,95,95,95,,,,,,,,,,,,,,,,,,,,,,,,,,,,,,,,,,,,,,,,,,,,,,,,,,,,,,,,,,,,None,211.7126826000167,None,211.7126826000167,212.72686560003785,212.71007910004118,None,211.7126826000167,None,211.7126826000167,None,211.7126826000167,None,211.7126826000167,None,211.7126826000167,None,211.7126826000167,None,211.7126826000167,None,211.7126826000167,None,,,,,,,,,,,,,,,,,,,,,,,,,2,001,2022-09-26_15h38.27.159,test9,2022.1.4,59.93935336798542,
,,,,,,,,1,nBack1Cond.xlsx,111,1,-0.2,0.2,None,1,97,,,,,,,,,,,,,0,0,0,0,0,96,96,96,,,,,,,,,,,,,,,,,,,,,,,,,,,,,,,,,,,,,,,,,,,,,,,,,,,,,,,,,,,,None,213.71325160004199,None,213.71325160004199,214.7269496000372,214.7102312000352,None,213.71325160004199,None,213.71325160004199,None,213.71325160004199,None,213.71325160004199,None,213.71325160004199,None,213.71325160004199,None,213.71325160004199,None,213.71325160004199,None,,,,,,,,,,,,,,,,,,,,,,,,,2,001,2022-09-26_15h38.27.159,test9,2022.1.4,59.93935336798542,
,,,,,,,,1,nBack1Cond.xlsx,111,1,-0.2,0.2,space,1,98,,,,,,,,,,,,,0,0,0,0,0,97,97,97,,,,,,,,,,,,,,,,,,,,,,,,,,,,,,,,,,,,,,,,,,,,,,,,,,,,,,,,,,,,space,215.7141147000366,None,215.7141147000366,216.72714249999262,216.71040050004376,None,215.7141147000366,None,215.7141147000366,None,215.7141147000366,None,215.7141147000366,None,215.7141147000366,None,215.7141147000366,None,215.7141147000366,None,215.7141147000366,None,0.43578330002492294,,,,,,,,,,,,,,,,,,,,,,,,2,001,2022-09-26_15h38.27.159,test9,2022.1.4,59.93935336798542,
,,,,,,,,1,nBack1Cond.xlsx,111,1,-0.2,0.2,space,1,99,,,,,,,,,,,,,0,0,0,0,0,98,98,98,,,,,,,,,,,,,,,,,,,,,,,,,,,,,,,,,,,,,,,,,,,,,,,,,,,,,,,,,,,,space,217.71308560000034,None,217.71308560000034,218.72695670003304,218.71009700000286,None,217.71308560000034,None,217.71308560000034,None,217.71308560000034,None,217.71308560000034,None,217.71308560000034,None,217.71308560000034,None,217.71308560000034,None,217.71308560000034,None,0.6127949999645352,,,,,,,,,,,,,,,,,,,,,,,,2,001,2022-09-26_15h38.27.159,test9,2022.1.4,59.93935336798542,
,,,,,,,,1,nBack1Cond.xlsx,111,6,0.2,0,None,1,100,,,,,,,,,,,,,0,0,0,0,0,99,99,99,,,,,,,,,,,,,,,,,,,,,,,,,,,,,,,,,,,,,,,,,,,,,,,,,,,,,,,,,,,,None,219.71433889999753,None,219.71433889999753,220.727277100028,220.71057430002838,None,219.71433889999753,None,219.71433889999753,None,219.71433889999753,None,219.71433889999753,None,219.71433889999753,None,219.71433889999753,None,219.71433889999753,None,219.71433889999753,None,,,,,,,,,,,,,,,,,,,,,,,,,2,001,2022-09-26_15h38.27.159,test9,2022.1.4,59.93935336798542,
,,,,,,,,1,nBack1Cond.xlsx,111,3,0.2,0.2,None,1,101,,,,,,,,,,,,,0,0,0,0,0,100,100,100,,,,,,,,,,,,,,,,,,,,,,,,,,,,,,,,,,,,,,,,,,,,,,,,,,,,,,,,,,,,None,221.71393050003098,None,221.71393050003098,222.72699719999218,222.7107246000087,None,221.71393050003098,None,221.71393050003098,None,221.71393050003098,None,221.71393050003098,None,221.71393050003098,None,221.71393050003098,None,221.71393050003098,None,221.71393050003098,None,,,,,,,,,,,,,,,,,,,,,,,,,2,001,2022-09-26_15h38.27.159,test9,2022.1.4,59.93935336798542,
,,,,,,,,1,nBack1Cond.xlsx,111,1,-0.2,0.2,None,1,102,,,,,,,,,,,,,0,0,0,0,0,101,101,101,,,,,,,,,,,,,,,,,,,,,,,,,,,,,,,,,,,,,,,,,,,,,,,,,,,,,,,,,,,,None,223.71280080004362,None,223.71280080004362,224.7268127000425,224.71020890004002,None,223.71280080004362,None,223.71280080004362,None,223.71280080004362,None,223.71280080004362,None,223.71280080004362,None,223.71280080004362,None,223.71280080004362,None,223.71280080004362,None,,,,,,,,,,,,,,,,,,,,,,,,,2,001,2022-09-26_15h38.27.159,test9,2022.1.4,59.93935336798542,
,,,,,,,,1,nBack1Cond.xlsx,111,5,0,0,None,1,103,,,,,,,,,,,,,0,0,0,0,0,102,102,102,,,,,,,,,,,,,,,,,,,,,,,,,,,,,,,,,,,,,,,,,,,,,,,,,,,,,,,,,,,,None,225.71238450001692,None,225.71238450001692,226.72689250000985,226.71018940000795,None,225.71238450001692,None,225.71238450001692,None,225.71238450001692,None,225.71238450001692,None,225.71238450001692,None,225.71238450001692,None,225.71238450001692,None,225.71238450001692,None,,,,,,,,,,,,,,,,,,,,,,,,,2,001,2022-09-26_15h38.27.159,test9,2022.1.4,59.93935336798542,
,,,,,,,,1,nBack1Cond.xlsx,111,5,0,0,space,1,104,,,,,,,,,,,,,0,0,0,0,0,103,103,103,,,,,,,,,,,,,,,,,,,,,,,,,,,,,,,,,,,,,,,,,,,,,,,,,,,,,,,,,,,,space,227.7119491000194,None,227.7119491000194,228.72729609999806,228.71044550003717,None,227.7119491000194,None,227.7119491000194,None,227.7119491000194,None,227.7119491000194,None,227.7119491000194,None,227.7119491000194,None,227.7119491000194,None,227.7119491000194,None,0.6300092999590561,,,,,,,,,,,,,,,,,,,,,,,,2,001,2022-09-26_15h38.27.159,test9,2022.1.4,59.93935336798542,
,,,,,,,,1,nBack1Cond.xlsx,111,8,0,-0.2,None,1,105,,,,,,,,,,,,,0,0,0,0,0,104,104,104,,,,,,,,,,,,,,,,,,,,,,,,,,,,,,,,,,,,,,,,,,,,,,,,,,,,,,,,,,,,None,229.7132420000271,None,229.7132420000271,230.72679230000358,230.71032780001406,None,229.7132420000271,None,229.7132420000271,None,229.7132420000271,None,229.7132420000271,None,229.7132420000271,None,229.7132420000271,None,229.7132420000271,None,229.7132420000271,None,,,,,,,,,,,,,,,,,,,,,,,,,2,001,2022-09-26_15h38.27.159,test9,2022.1.4,59.93935336798542,
,,,,,,,,1,nBack1Cond.xlsx,111,4,-0.2,0,None,1,106,,,,,,,,,,,,,0,0,0,0,0,105,105,105,,,,,,,,,,,,,,,,,,,,,,,,,,,,,,,,,,,,,,,,,,,,,,,,,,,,,,,,,,,,None,231.7130155999912,None,231.7130155999912,232.7270675000036,232.7101272,None,231.7130155999912,None,231.7130155999912,None,231.7130155999912,None,231.7130155999912,None,231.7130155999912,None,231.7130155999912,None,231.7130155999912,None,231.7130155999912,None,,,,,,,,,,,,,,,,,,,,,,,,,2,001,2022-09-26_15h38.27.159,test9,2022.1.4,59.93935336798542,
,,,,,,,,1,nBack1Cond.xlsx,111,4,-0.2,0,space,1,107,,,,,,,,,,,,,0,0,0,0,0,106,106,106,,,,,,,,,,,,,,,,,,,,,,,,,,,,,,,,,,,,,,,,,,,,,,,,,,,,,,,,,,,,space,233.7127169999876,None,233.7127169999876,234.7267989999964,234.71017380000558,None,233.7127169999876,None,233.7127169999876,None,233.7127169999876,None,233.7127169999876,None,233.7127169999876,None,233.7127169999876,None,233.7127169999876,None,233.7127169999876,None,0.5406716999714263,,,,,,,,,,,,,,,,,,,,,,,,2,001,2022-09-26_15h38.27.159,test9,2022.1.4,59.93935336798542,
,,,,,,,,1,nBack1Cond.xlsx,111,2,0,0.2,None,1,108,,,,,,,,,,,,,0,0,0,0,0,107,107,107,,,,,,,,,,,,,,,,,,,,,,,,,,,,,,,,,,,,,,,,,,,,,,,,,,,,,,,,,,,,None,235.71238590002758,None,235.71238590002758,236.72720820002723,236.71031669998774,None,235.71238590002758,None,235.71238590002758,None,235.71238590002758,None,235.71238590002758,None,235.71238590002758,None,235.71238590002758,None,235.71238590002758,None,235.71238590002758,None,,,,,,,,,,,,,,,,,,,,,,,,,2,001,2022-09-26_15h38.27.159,test9,2022.1.4,59.93935336798542,
,,,,,,,,1,nBack1Cond.xlsx,111,1,-0.2,0.2,None,1,109,,,,,,,,,,,,,0,0,0,0,0,108,108,108,,,,,,,,,,,,,,,,,,,,,,,,,,,,,,,,,,,,,,,,,,,,,,,,,,,,,,,,,,,,None,237.6961466000066,None,237.6961466000066,238.71065980003914,238.6934450000408,239.69348489999538,237.6961466000066,None,237.6961466000066,None,237.6961466000066,None,237.6961466000066,None,237.6961466000066,None,237.6961466000066,None,237.6961466000066,None,237.6961466000066,None,,,,,,,,,,,,,,,,,,,,,,,,,2,001,2022-09-26_15h38.27.159,test9,2022.1.4,59.93935336798542,
,,,,,,,,1,nBack1Cond.xlsx,111,8,0,-0.2,None,1,110,,,,,,,,,,,,,0,0,0,0,0,109,109,109,,,,,,,,,,,,,,,,,,,,,,,,,,,,,,,,,,,,,,,,,,,,,,,,,,,,,,,,,,,,None,239.71258829999715,None,239.71258829999715,240.72724919999018,240.71017410000786,None,239.71258829999715,None,239.71258829999715,None,239.71258829999715,None,239.71258829999715,None,239.71258829999715,None,239.71258829999715,None,239.71258829999715,None,239.71258829999715,None,,,,,,,,,,,,,,,,,,,,,,,,,2,001,2022-09-26_15h38.27.159,test9,2022.1.4,59.93935336798542,
,,,,,,,,1,nBack1Cond.xlsx,111,3,0.2,0.2,None,1,111,,,,,,,,,,,,,0,0,0,0,0,110,110,110,,,,,,,,,,,,,,,,,,,,,,,,,,,,,,,,,,,,,,,,,,,,,,,,,,,,,,,,,,,,None,241.6984139000415,None,241.6984139000415,242.71025880001253,242.69372149999253,243.6935273000272,241.6984139000415,None,241.6984139000415,None,241.6984139000415,None,241.6984139000415,None,241.6984139000415,None,241.6984139000415,None,241.6984139000415,None,241.6984139000415,None,,,,,,,,,,,,,,,,,,,,,,,,,2,001,2022-09-26_15h38.27.159,test9,2022.1.4,59.93935336798542,
,,,,,,,,1,nBack1Cond.xlsx,111,3,0.2,0.2,space,1,112,,,,,,,,,,,,,0,0,0,0,0,111,111,111,,,,,,,,,,,,,,,,,,,,,,,,,,,,,,,,,,,,,,,,,,,,,,,,,,,,,,,,,,,,space,243.71372470003553,None,243.71372470003553,244.72701440000674,244.7102237000363,None,243.71372470003553,None,243.71372470003553,None,243.71372470003553,None,243.71372470003553,None,243.71372470003553,None,243.71372470003553,None,243.71372470003553,None,243.71372470003553,None,0.5801884999964386,,,,,,,,,,,,,,,,,,,,,,,,2,001,2022-09-26_15h38.27.159,test9,2022.1.4,59.93935336798542,
,,,,,,,,1,nBack1Cond.xlsx,111,4,-0.2,0,None,1,113,,,,,,,,,,,,,0,0,0,0,0,112,112,112,,,,,,,,,,,,,,,,,,,,,,,,,,,,,,,,,,,,,,,,,,,,,,,,,,,,,,,,,,,,None,245.71368889999576,None,245.71368889999576,246.7273487999919,246.71017080004094,None,245.71368889999576,None,245.71368889999576,None,245.71368889999576,None,245.71368889999576,None,245.71368889999576,None,245.71368889999576,None,245.71368889999576,None,245.71368889999576,None,,,,,,,,,,,,,,,,,,,,,,,,,2,001,2022-09-26_15h38.27.159,test9,2022.1.4,59.93935336798542,
,,,,,,,,1,nBack1Cond.xlsx,111,6,0.2,0,None,1,114,,,,,,,,,,,,,0,0,0,0,0,113,113,113,,,,,,,,,,,,,,,,,,,,,,,,,,,,,,,,,,,,,,,,,,,,,,,,,,,,,,,,,,,,None,247.71322989999317,None,247.71322989999317,248.72763420001138,248.7105714000063,None,247.71322989999317,None,247.71322989999317,None,247.71322989999317,None,247.71322989999317,None,247.71322989999317,None,247.71322989999317,None,247.71322989999317,None,247.71322989999317,None,,,,,,,,,,,,,,,,,,,,,,,,,2,001,2022-09-26_15h38.27.159,test9,2022.1.4,59.93935336798542,
,,,,,,,,1,nBack1Cond.xlsx,111,9,0.2,-0.2,None,1,115,,,,,,,,,,,,,0,0,0,0,0,114,114,114,,,,,,,,,,,,,,,,,,,,,,,,,,,,,,,,,,,,,,,,,,,,,,,,,,,,,,,,,,,,None,249.71265480003785,None,249.71265480003785,250.72683100000722,250.7100735999993,None,249.71265480003785,None,249.71265480003785,None,249.71265480003785,None,249.71265480003785,None,249.71265480003785,None,249.71265480003785,None,249.71265480003785,None,249.71265480003785,None,,,,,,,,,,,,,,,,,,,,,,,,,2,001,2022-09-26_15h38.27.159,test9,2022.1.4,59.93935336798542,
,,,,,,,,1,nBack1Cond.xlsx,111,9,0.2,-0.2,space,1,116,,,,,,,,,,,,,0,0,0,0,0,115,115,115,,,,,,,,,,,,,,,,,,,,,,,,,,,,,,,,,,,,,,,,,,,,,,,,,,,,,,,,,,,,space,251.71231969998917,None,251.71231969998917,252.72734650003258,252.71016449999297,None,251.71231969998917,None,251.71231969998917,None,251.71231969998917,None,251.71231969998917,None,251.71231969998917,None,251.71231969998917,None,251.71231969998917,None,251.71231969998917,None,0.34229359996970743,,,,,,,,,,,,,,,,,,,,,,,,2,001,2022-09-26_15h38.27.159,test9,2022.1.4,59.93935336798542,
,,,,,,,,1,nBack1Cond.xlsx,111,2,0,0.2,None,1,117,,,,,,,,,,,,,0,0,0,0,0,116,116,116,,,,,,,,,,,,,,,,,,,,,,,,,,,,,,,,,,,,,,,,,,,,,,,,,,,,,,,,,,,,None,253.7124746000045,None,253.7124746000045,254.72692690003896,254.71008460002486,None,253.7124746000045,None,253.7124746000045,None,253.7124746000045,None,253.7124746000045,None,253.7124746000045,None,253.7124746000045,None,253.7124746000045,None,253.7124746000045,None,,,,,,,,,,,,,,,,,,,,,,,,,2,001,2022-09-26_15h38.27.159,test9,2022.1.4,59.93935336798542,
,,,,,,,,1,nBack1Cond.xlsx,111,6,0.2,0,None,1,118,,,,,,,,,,,,,0,0,0,0,0,117,117,117,,,,,,,,,,,,,,,,,,,,,,,,,,,,,,,,,,,,,,,,,,,,,,,,,,,,,,,,,,,,None,255.7119529999909,None,255.7119529999909,256.72699520003516,256.7101605000207,None,255.7119529999909,None,255.7119529999909,None,255.7119529999909,None,255.7119529999909,None,255.7119529999909,None,255.7119529999909,None,255.7119529999909,None,255.7119529999909,None,,,,,,,,,,,,,,,,,,,,,,,,,2,001,2022-09-26_15h38.27.159,test9,2022.1.4,59.93935336798542,
,,,,,,,,1,nBack1Cond.xlsx,111,6,0.2,0,space,1,119,,,,,,,,,,,,,0,0,0,0,0,118,118,118,,,,,,,,,,,,,,,,,,,,,,,,,,,,,,,,,,,,,,,,,,,,,,,,,,,,,,,,,,,,space,257.7154572000145,None,257.7154572000145,258.72710000001825,258.71052650001366,None,257.7154572000145,None,257.7154572000145,None,257.7154572000145,None,257.7154572000145,None,257.7154572000145,None,257.7154572000145,None,257.7154572000145,None,257.7154572000145,None,0.354237399995327,,,,,,,,,,,,,,,,,,,,,,,,2,001,2022-09-26_15h38.27.159,test9,2022.1.4,59.93935336798542,
,,,,,,,,1,nBack1Cond.xlsx,111,,,,,,,,,,,,,,,,,,,0,0,0,0,,,,,,,,,,,,,,,,,,,,,,,,,,,,,,,,,,,,,,,,,,,,,,,,,,,,,,,,,,,,,,,,,,,,,,,,,,,,,,,,,,,,,,,,,,,,,,,,,,,,,,,,,,,,,,,2,001,2022-09-26_15h38.27.159,test9,2022.1.4,59.93935336798542,
,,,,,,,,2,nBack2Cond.xlsx,121,5,0,0,None,2,120,,,,,,,,,,,,,0,1,1,1,0,0,0,0,,,,,,,,,,,,,,,,,,,,,,,,,,,,,,,,,,,,,,,,,,,,,,,,,,,,,,259.7537536000018,None,259.7537536000018,None,259.7537536000018,None,None,262.7875192000065,None,262.7875192000065,263.79393310000887,263.7771980999969,None,262.7875192000065,None,262.7875192000065,None,262.7875192000065,None,262.7875192000065,None,262.7875192000065,None,262.7875192000065,None,262.7875192000065,None,262.7875192000065,None,,,,,,,,,,,,,,,,,,,,,,,,,2,001,2022-09-26_15h38.27.159,test9,2022.1.4,59.93935336798542,
,,,,,,,,2,nBack2Cond.xlsx,121,2,0,0.2,None,2,121,,,,,,,,,,,,,0,1,1,1,0,1,1,1,,,,,,,,,,,,,,,,,,,,,,,,,,,,,,,,,,,,,,,,,,,,,,,,,,,,,,,,,,,,None,264.78162710001925,None,264.78162710001925,265.79360900004394,265.7768936000066,None,264.78162710001925,None,264.78162710001925,None,264.78162710001925,None,264.78162710001925,None,264.78162710001925,None,264.78162710001925,None,264.78162710001925,None,264.78162710001925,None,,,,,,,,,,,,,,,,,,,,,,,,,2,001,2022-09-26_15h38.27.159,test9,2022.1.4,59.93935336798542,
,,,,,,,,2,nBack2Cond.xlsx,121,6,0.2,0,None,2,122,,,,,,,,,,,,,0,1,1,1,0,2,2,2,,,,,,,,,,,,,,,,,,,,,,,,,,,,,,,,,,,,,,,,,,,,,,,,,,,,,,,,,,,,None,266.7786505999975,None,266.7786505999975,267.7936264000018,267.77738240000326,None,266.7786505999975,None,266.7786505999975,None,266.7786505999975,None,266.7786505999975,None,266.7786505999975,None,266.7786505999975,None,266.7786505999975,None,266.7786505999975,None,,,,,,,,,,,,,,,,,,,,,,,,,2,001,2022-09-26_15h38.27.159,test9,2022.1.4,59.93935336798542,
,,,,,,,,2,nBack2Cond.xlsx,121,9,0.2,-0.2,None,2,123,,,,,,,,,,,,,0,1,1,1,0,3,3,3,,,,,,,,,,,,,,,,,,,,,,,,,,,,,,,,,,,,,,,,,,,,,,,,,,,,,,,,,,,,None,268.78006960003404,None,268.78006960003404,269.79364700004226,269.7776045000064,None,268.78006960003404,None,268.78006960003404,None,268.78006960003404,None,268.78006960003404,None,268.78006960003404,None,268.78006960003404,None,268.78006960003404,None,268.78006960003404,None,,,,,,,,,,,,,,,,,,,,,,,,,2,001,2022-09-26_15h38.27.159,test9,2022.1.4,59.93935336798542,
,,,,,,,,2,nBack2Cond.xlsx,121,3,0.2,0.2,None,2,124,,,,,,,,,,,,,0,1,1,1,0,4,4,4,,,,,,,,,,,,,,,,,,,,,,,,,,,,,,,,,,,,,,,,,,,,,,,,,,,,,,,,,,,,None,270.7817168000038,None,270.7817168000038,271.79377430002205,271.7770915000001,None,270.7817168000038,None,270.7817168000038,None,270.7817168000038,None,270.7817168000038,None,270.7817168000038,None,270.7817168000038,None,270.7817168000038,None,270.7817168000038,None,,,,,,,,,,,,,,,,,,,,,,,,,2,001,2022-09-26_15h38.27.159,test9,2022.1.4,59.93935336798542,
,,,,,,,,2,nBack2Cond.xlsx,121,9,0.2,-0.2,space,2,125,,,,,,,,,,,,,0,1,1,1,0,5,5,5,,,,,,,,,,,,,,,,,,,,,,,,,,,,,,,,,,,,,,,,,,,,,,,,,,,,,,,,,,,,space,272.77948040002957,None,272.77948040002957,273.793667800026,273.7771006000112,None,272.77948040002957,None,272.77948040002957,None,272.77948040002957,None,272.77948040002957,None,272.77948040002957,None,272.77948040002957,None,272.77948040002957,None,272.77948040002957,None,0.41012330004014075,,,,,,,,,,,,,,,,,,,,,,,,2,001,2022-09-26_15h38.27.159,test9,2022.1.4,59.93935336798542,
,,,,,,,,2,nBack2Cond.xlsx,121,7,-0.2,-0.2,None,2,126,,,,,,,,,,,,,0,1,1,1,0,6,6,6,,,,,,,,,,,,,,,,,,,,,,,,,,,,,,,,,,,,,,,,,,,,,,,,,,,,,,,,,,,,None,274.7803638000041,None,274.7803638000041,275.7934806999983,275.77726400003303,None,274.7803638000041,None,274.7803638000041,None,274.7803638000041,None,274.7803638000041,None,274.7803638000041,None,274.7803638000041,None,274.7803638000041,None,274.7803638000041,None,,,,,,,,,,,,,,,,,,,,,,,,,2,001,2022-09-26_15h38.27.159,test9,2022.1.4,59.93935336798542,
,,,,,,,,2,nBack2Cond.xlsx,121,1,-0.2,0.2,None,2,127,,,,,,,,,,,,,0,1,1,1,0,7,7,7,,,,,,,,,,,,,,,,,,,,,,,,,,,,,,,,,,,,,,,,,,,,,,,,,,,,,,,,,,,,None,276.78152620000765,None,276.78152620000765,277.79348640004173,277.7775233000284,None,276.78152620000765,None,276.78152620000765,None,276.78152620000765,None,276.78152620000765,None,276.78152620000765,None,276.78152620000765,None,276.78152620000765,None,276.78152620000765,None,,,,,,,,,,,,,,,,,,,,,,,,,2,001,2022-09-26_15h38.27.159,test9,2022.1.4,59.93935336798542,
,,,,,,,,2,nBack2Cond.xlsx,121,5,0,0,None,2,128,,,,,,,,,,,,,0,1,1,1,0,8,8,8,,,,,,,,,,,,,,,,,,,,,,,,,,,,,,,,,,,,,,,,,,,,,,,,,,,,,,,,,,,,None,278.77871069998946,None,278.77871069998946,279.7935557999881,279.77698349999264,None,278.77871069998946,None,278.77871069998946,None,278.77871069998946,None,278.77871069998946,None,278.77871069998946,None,278.77871069998946,None,278.77871069998946,None,278.77871069998946,None,,,,,,,,,,,,,,,,,,,,,,,,,2,001,2022-09-26_15h38.27.159,test9,2022.1.4,59.93935336798542,
,,,,,,,,2,nBack2Cond.xlsx,121,7,-0.2,-0.2,None,2,129,,,,,,,,,,,,,0,1,1,1,0,9,9,9,,,,,,,,,,,,,,,,,,,,,,,,,,,,,,,,,,,,,,,,,,,,,,,,,,,,,,,,,,,,None,280.77909339999314,None,280.77909339999314,281.79359060002025,281.7771672999952,None,280.77909339999314,None,280.77909339999314,None,280.77909339999314,None,280.77909339999314,None,280.77909339999314,None,280.77909339999314,None,280.77909339999314,None,280.77909339999314,None,,,,,,,,,,,,,,,,,,,,,,,,,2,001,2022-09-26_15h38.27.159,test9,2022.1.4,59.93935336798542,
,,,,,,,,2,nBack2Cond.xlsx,121,5,0,0,space,2,130,,,,,,,,,,,,,0,1,1,1,0,10,10,10,,,,,,,,,,,,,,,,,,,,,,,,,,,,,,,,,,,,,,,,,,,,,,,,,,,,,,,,,,,,space,282.779273800028,None,282.779273800028,283.7936735000112,283.77699099999154,None,282.779273800028,None,282.779273800028,None,282.779273800028,None,282.779273800028,None,282.779273800028,None,282.779273800028,None,282.779273800028,None,282.779273800028,None,0.4659203000483103,,,,,,,,,,,,,,,,,,,,,,,,2,001,2022-09-26_15h38.27.159,test9,2022.1.4,59.93935336798542,
,,,,,,,,2,nBack2Cond.xlsx,121,6,0.2,0,None,2,131,,,,,,,,,,,,,0,1,1,1,0,11,11,11,,,,,,,,,,,,,,,,,,,,,,,,,,,,,,,,,,,,,,,,,,,,,,,,,,,,,,,,,,,,None,284.7791218000348,None,284.7791218000348,285.79355460003717,285.7776537000318,None,284.7791218000348,None,284.7791218000348,None,284.7791218000348,None,284.7791218000348,None,284.7791218000348,None,284.7791218000348,None,284.7791218000348,None,284.7791218000348,None,,,,,,,,,,,,,,,,,,,,,,,,,2,001,2022-09-26_15h38.27.159,test9,2022.1.4,59.93935336798542,
,,,,,,,,2,nBack2Cond.xlsx,121,3,0.2,0.2,None,2,132,,,,,,,,,,,,,0,1,1,1,0,12,12,12,,,,,,,,,,,,,,,,,,,,,,,,,,,,,,,,,,,,,,,,,,,,,,,,,,,,,,,,,,,,None,286.78146590001415,None,286.78146590001415,287.7936090999865,287.7771391000133,None,286.78146590001415,None,286.78146590001415,None,286.78146590001415,None,286.78146590001415,None,286.78146590001415,None,286.78146590001415,None,286.78146590001415,None,286.78146590001415,None,,,,,,,,,,,,,,,,,,,,,,,,,2,001,2022-09-26_15h38.27.159,test9,2022.1.4,59.93935336798542,
,,,,,,,,2,nBack2Cond.xlsx,121,6,0.2,0,space,2,133,,,,,,,,,,,,,0,1,1,1,0,13,13,13,,,,,,,,,,,,,,,,,,,,,,,,,,,,,,,,,,,,,,,,,,,,,,,,,,,,,,,,,,,,space,288.77924470003927,None,288.77924470003927,289.7936250999919,289.77700960001675,None,288.77924470003927,None,288.77924470003927,None,288.77924470003927,None,288.77924470003927,None,288.77924470003927,None,288.77924470003927,None,288.77924470003927,None,288.77924470003927,None,0.33065229997737333,,,,,,,,,,,,,,,,,,,,,,,,2,001,2022-09-26_15h38.27.159,test9,2022.1.4,59.93935336798542,
,,,,,,,,2,nBack2Cond.xlsx,121,8,0,-0.2,None,2,134,,,,,,,,,,,,,0,1,1,1,0,14,14,14,,,,,,,,,,,,,,,,,,,,,,,,,,,,,,,,,,,,,,,,,,,,,,,,,,,,,,,,,,,,None,290.77882589999354,None,290.77882589999354,291.79357089998666,291.77729990001535,None,290.77882589999354,None,290.77882589999354,None,290.77882589999354,None,290.77882589999354,None,290.77882589999354,None,290.77882589999354,None,290.77882589999354,None,290.77882589999354,None,,,,,,,,,,,,,,,,,,,,,,,,,2,001,2022-09-26_15h38.27.159,test9,2022.1.4,59.93935336798542,
,,,,,,,,2,nBack2Cond.xlsx,121,9,0.2,-0.2,None,2,135,,,,,,,,,,,,,0,1,1,1,0,15,15,15,,,,,,,,,,,,,,,,,,,,,,,,,,,,,,,,,,,,,,,,,,,,,,,,,,,,,,,,,,,,None,292.77963410003576,None,292.77963410003576,293.79378020000877,293.77748879999854,None,292.77963410003576,None,292.77963410003576,None,292.77963410003576,None,292.77963410003576,None,292.77963410003576,None,292.77963410003576,None,292.77963410003576,None,292.77963410003576,None,,,,,,,,,,,,,,,,,,,,,,,,,2,001,2022-09-26_15h38.27.159,test9,2022.1.4,59.93935336798542,
,,,,,,,,2,nBack2Cond.xlsx,121,9,0.2,-0.2,None,2,136,,,,,,,,,,,,,0,1,1,1,0,16,16,16,,,,,,,,,,,,,,,,,,,,,,,,,,,,,,,,,,,,,,,,,,,,,,,,,,,,,,,,,,,,None,294.78087519999826,None,294.78087519999826,295.7936207000166,295.7772518999991,None,294.78087519999826,None,294.78087519999826,None,294.78087519999826,None,294.78087519999826,None,294.78087519999826,None,294.78087519999826,None,294.78087519999826,None,294.78087519999826,None,,,,,,,,,,,,,,,,,,,,,,,,,2,001,2022-09-26_15h38.27.159,test9,2022.1.4,59.93935336798542,
,,,,,,,,2,nBack2Cond.xlsx,121,1,-0.2,0.2,None,2,137,,,,,,,,,,,,,0,1,1,1,0,17,17,17,,,,,,,,,,,,,,,,,,,,,,,,,,,,,,,,,,,,,,,,,,,,,,,,,,,,,,,,,,,,None,296.7822163000237,None,296.7822163000237,297.7936365000205,297.77705540001625,None,296.7822163000237,None,296.7822163000237,None,296.7822163000237,None,296.7822163000237,None,296.7822163000237,None,296.7822163000237,None,296.7822163000237,None,296.7822163000237,None,,,,,,,,,,,,,,,,,,,,,,,,,2,001,2022-09-26_15h38.27.159,test9,2022.1.4,59.93935336798542,
,,,,,,,,2,nBack2Cond.xlsx,121,3,0.2,0.2,None,2,138,,,,,,,,,,,,,0,1,1,1,0,18,18,18,,,,,,,,,,,,,,,,,,,,,,,,,,,,,,,,,,,,,,,,,,,,,,,,,,,,,,,,,,,,None,298.77941449999344,None,298.77941449999344,299.79359580000164,299.77726500004064,None,298.77941449999344,None,298.77941449999344,None,298.77941449999344,None,298.77941449999344,None,298.77941449999344,None,298.77941449999344,None,298.77941449999344,None,298.77941449999344,None,,,,,,,,,,,,,,,,,,,,,,,,,2,001,2022-09-26_15h38.27.159,test9,2022.1.4,59.93935336798542,
,,,,,,,,2,nBack2Cond.xlsx,121,5,0,0,None,2,139,,,,,,,,,,,,,0,1,1,1,0,19,19,19,,,,,,,,,,,,,,,,,,,,,,,,,,,,,,,,,,,,,,,,,,,,,,,,,,,,,,,,,,,,None,300.7826624000445,None,300.7826624000445,301.79356840002583,301.7772628000239,None,300.7826624000445,None,300.7826624000445,None,300.7826624000445,None,300.7826624000445,None,300.7826624000445,None,300.7826624000445,None,300.7826624000445,None,300.7826624000445,None,,,,,,,,,,,,,,,,,,,,,,,,,2,001,2022-09-26_15h38.27.159,test9,2022.1.4,59.93935336798542,
,,,,,,,,2,nBack2Cond.xlsx,121,3,0.2,0.2,space,2,140,,,,,,,,,,,,,0,1,1,1,0,20,20,20,,,,,,,,,,,,,,,,,,,,,,,,,,,,,,,,,,,,,,,,,,,,,,,,,,,,,,,,,,,,space,302.7820820999914,None,302.7820820999914,303.7937150000362,303.7771541000111,None,302.7820820999914,None,302.7820820999914,None,302.7820820999914,None,302.7820820999914,None,302.7820820999914,None,302.7820820999914,None,302.7820820999914,None,302.7820820999914,None,0.4154662999790162,,,,,,,,,,,,,,,,,,,,,,,,2,001,2022-09-26_15h38.27.159,test9,2022.1.4,59.93935336798542,
,,,,,,,,2,nBack2Cond.xlsx,121,4,-0.2,0,None,2,141,,,,,,,,,,,,,0,1,1,1,0,21,21,21,,,,,,,,,,,,,,,,,,,,,,,,,,,,,,,,,,,,,,,,,,,,,,,,,,,,,,,,,,,,None,304.7789274000097,None,304.7789274000097,305.7936220000265,305.7770855000126,None,304.7789274000097,None,304.7789274000097,None,304.7789274000097,None,304.7789274000097,None,304.7789274000097,None,304.7789274000097,None,304.7789274000097,None,304.7789274000097,None,,,,,,,,,,,,,,,,,,,,,,,,,2,001,2022-09-26_15h38.27.159,test9,2022.1.4,59.93935336798542,
,,,,,,,,2,nBack2Cond.xlsx,121,7,-0.2,-0.2,None,2,142,,,,,,,,,,,,,0,1,1,1,0,22,22,22,,,,,,,,,,,,,,,,,,,,,,,,,,,,,,,,,,,,,,,,,,,,,,,,,,,,,,,,,,,,None,306.77914280002005,None,306.77914280002005,307.7936042000074,307.7769980999874,None,306.77914280002005,None,306.77914280002005,None,306.77914280002005,None,306.77914280002005,None,306.77914280002005,None,306.77914280002005,None,306.77914280002005,None,306.77914280002005,None,,,,,,,,,,,,,,,,,,,,,,,,,2,001,2022-09-26_15h38.27.159,test9,2022.1.4,59.93935336798542,
,,,,,,,,2,nBack2Cond.xlsx,121,4,-0.2,0,space,2,143,,,,,,,,,,,,,0,1,1,1,0,23,23,23,,,,,,,,,,,,,,,,,,,,,,,,,,,,,,,,,,,,,,,,,,,,,,,,,,,,,,,,,,,,space,308.77894540003035,None,308.77894540003035,309.79361570003675,309.7772317000199,None,308.77894540003035,None,308.77894540003035,None,308.77894540003035,None,308.77894540003035,None,308.77894540003035,None,308.77894540003035,None,308.77894540003035,None,308.77894540003035,None,0.47479659999953583,,,,,,,,,,,,,,,,,,,,,,,,2,001,2022-09-26_15h38.27.159,test9,2022.1.4,59.93935336798542,
,,,,,,,,2,nBack2Cond.xlsx,121,4,-0.2,0,None,2,144,,,,,,,,,,,,,0,1,1,1,0,24,24,24,,,,,,,,,,,,,,,,,,,,,,,,,,,,,,,,,,,,,,,,,,,,,,,,,,,,,,,,,,,,None,310.7817550000036,None,310.7817550000036,311.79359580000164,311.7774953999906,None,310.7817550000036,None,310.7817550000036,None,310.7817550000036,None,310.7817550000036,None,310.7817550000036,None,310.7817550000036,None,310.7817550000036,None,310.7817550000036,None,,,,,,,,,,,,,,,,,,,,,,,,,2,001,2022-09-26_15h38.27.159,test9,2022.1.4,59.93935336798542,
,,,,,,,,2,nBack2Cond.xlsx,121,5,0,0,None,2,145,,,,,,,,,,,,,0,1,1,1,0,25,25,25,,,,,,,,,,,,,,,,,,,,,,,,,,,,,,,,,,,,,,,,,,,,,,,,,,,,,,,,,,,,None,312.77919710002607,None,312.77919710002607,313.79367310000816,313.77721999998903,None,312.77919710002607,None,312.77919710002607,None,312.77919710002607,None,312.77919710002607,None,312.77919710002607,None,312.77919710002607,None,312.77919710002607,None,312.77919710002607,None,,,,,,,,,,,,,,,,,,,,,,,,,2,001,2022-09-26_15h38.27.159,test9,2022.1.4,59.93935336798542,
,,,,,,,,2,nBack2Cond.xlsx,121,2,0,0.2,None,2,146,,,,,,,,,,,,,0,1,1,1,0,26,26,26,,,,,,,,,,,,,,,,,,,,,,,,,,,,,,,,,,,,,,,,,,,,,,,,,,,,,,,,,,,,None,314.77878809999675,None,314.77878809999675,315.7937441000249,315.77719849999994,None,314.77878809999675,None,314.77878809999675,None,314.77878809999675,None,314.77878809999675,None,314.77878809999675,None,314.77878809999675,None,314.77878809999675,None,314.77878809999675,None,,,,,,,,,,,,,,,,,,,,,,,,,2,001,2022-09-26_15h38.27.159,test9,2022.1.4,59.93935336798542,
,,,,,,,,2,nBack2Cond.xlsx,121,6,0.2,0,None,2,147,,,,,,,,,,,,,0,1,1,1,0,27,27,27,,,,,,,,,,,,,,,,,,,,,,,,,,,,,,,,,,,,,,,,,,,,,,,,,,,,,,,,,,,,None,316.77946980000706,None,316.77946980000706,317.7939261000138,317.77801680000266,None,316.77946980000706,None,316.77946980000706,None,316.77946980000706,None,316.77946980000706,None,316.77946980000706,None,316.77946980000706,None,316.77946980000706,None,316.77946980000706,None,,,,,,,,,,,,,,,,,,,,,,,,,2,001,2022-09-26_15h38.27.159,test9,2022.1.4,59.93935336798542,
,,,,,,,,2,nBack2Cond.xlsx,121,7,-0.2,-0.2,None,2,148,,,,,,,,,,,,,0,1,1,1,0,28,28,28,,,,,,,,,,,,,,,,,,,,,,,,,,,,,,,,,,,,,,,,,,,,,,,,,,,,,,,,,,,,None,318.78082119999453,None,318.78082119999453,319.79362970002694,319.77720180002507,None,318.78082119999453,None,318.78082119999453,None,318.78082119999453,None,318.78082119999453,None,318.78082119999453,None,318.78082119999453,None,318.78082119999453,None,318.78082119999453,None,,,,,,,,,,,,,,,,,,,,,,,,,2,001,2022-09-26_15h38.27.159,test9,2022.1.4,59.93935336798542,
,,,,,,,,2,nBack2Cond.xlsx,121,6,0.2,0,space,2,149,,,,,,,,,,,,,0,1,1,1,0,29,29,29,,,,,,,,,,,,,,,,,,,,,,,,,,,,,,,,,,,,,,,,,,,,,,,,,,,,,,,,,,,,space,320.77938500000164,None,320.77938500000164,321.79367240000283,321.77732350002043,None,320.77938500000164,None,320.77938500000164,None,320.77938500000164,None,320.77938500000164,None,320.77938500000164,None,320.77938500000164,None,320.77938500000164,None,320.77938500000164,None,0.6423005999531597,,,,,,,,,,,,,,,,,,,,,,,,2,001,2022-09-26_15h38.27.159,test9,2022.1.4,59.93935336798542,
,,,,,,,,2,nBack2Cond.xlsx,121,8,0,-0.2,None,2,150,,,,,,,,,,,,,0,1,1,1,0,30,30,30,,,,,,,,,,,,,,,,,,,,,,,,,,,,,,,,,,,,,,,,,,,,,,,,,,,,,,,,,,,,None,322.7800827000174,None,322.7800827000174,323.79385350004304,323.7775753000169,None,322.7800827000174,None,322.7800827000174,None,322.7800827000174,None,322.7800827000174,None,322.7800827000174,None,322.7800827000174,None,322.7800827000174,None,322.7800827000174,None,,,,,,,,,,,,,,,,,,,,,,,,,2,001,2022-09-26_15h38.27.159,test9,2022.1.4,59.93935336798542,
,,,,,,,,2,nBack2Cond.xlsx,121,2,0,0.2,None,2,151,,,,,,,,,,,,,0,1,1,1,0,31,31,31,,,,,,,,,,,,,,,,,,,,,,,,,,,,,,,,,,,,,,,,,,,,,,,,,,,,,,,,,,,,None,324.77917590003926,None,324.77917590003926,325.7937035000068,325.7771383000072,None,324.77917590003926,None,324.77917590003926,None,324.77917590003926,None,324.77917590003926,None,324.77917590003926,None,324.77917590003926,None,324.77917590003926,None,324.77917590003926,None,,,,,,,,,,,,,,,,,,,,,,,,,2,001,2022-09-26_15h38.27.159,test9,2022.1.4,59.93935336798542,
,,,,,,,,2,nBack2Cond.xlsx,121,8,0,-0.2,space,2,152,,,,,,,,,,,,,0,1,1,1,0,32,32,32,,,,,,,,,,,,,,,,,,,,,,,,,,,,,,,,,,,,,,,,,,,,,,,,,,,,,,,,,,,,space,326.78029960003914,None,326.78029960003914,327.79374640004244,327.77752420003526,None,326.78029960003914,None,326.78029960003914,None,326.78029960003914,None,326.78029960003914,None,326.78029960003914,None,326.78029960003914,None,326.78029960003914,None,326.78029960003914,None,0.3372353999875486,,,,,,,,,,,,,,,,,,,,,,,,2,001,2022-09-26_15h38.27.159,test9,2022.1.4,59.93935336798542,
,,,,,,,,2,nBack2Cond.xlsx,121,9,0.2,-0.2,None,2,153,,,,,,,,,,,,,0,1,1,1,0,33,33,33,,,,,,,,,,,,,,,,,,,,,,,,,,,,,,,,,,,,,,,,,,,,,,,,,,,,,,,,,,,,None,328.77906410000287,None,328.77906410000287,329.79382040002383,329.777201000019,None,328.77906410000287,None,328.77906410000287,None,328.77906410000287,None,328.77906410000287,None,328.77906410000287,None,328.77906410000287,None,328.77906410000287,None,328.77906410000287,None,,,,,,,,,,,,,,,,,,,,,,,,,2,001,2022-09-26_15h38.27.159,test9,2022.1.4,59.93935336798542,
,,,,,,,,2,nBack2Cond.xlsx,121,6,0.2,0,None,2,154,,,,,,,,,,,,,0,1,1,1,0,34,34,34,,,,,,,,,,,,,,,,,,,,,,,,,,,,,,,,,,,,,,,,,,,,,,,,,,,,,,,,,,,,None,330.7790685000364,None,330.7790685000364,331.79371950001223,331.77732940000715,None,330.7790685000364,None,330.7790685000364,None,330.7790685000364,None,330.7790685000364,None,330.7790685000364,None,330.7790685000364,None,330.7790685000364,None,330.7790685000364,None,,,,,,,,,,,,,,,,,,,,,,,,,2,001,2022-09-26_15h38.27.159,test9,2022.1.4,59.93935336798542,
,,,,,,,,2,nBack2Cond.xlsx,121,9,0.2,-0.2,space,2,155,,,,,,,,,,,,,0,1,1,1,0,35,35,35,,,,,,,,,,,,,,,,,,,,,,,,,,,,,,,,,,,,,,,,,,,,,,,,,,,,,,,,,,,,space,332.77935830003116,None,332.77935830003116,333.7936805000063,333.7771919000079,None,332.77935830003116,None,332.77935830003116,None,332.77935830003116,None,332.77935830003116,None,332.77935830003116,None,332.77935830003116,None,332.77935830003116,None,332.77935830003116,None,0.4504795999964699,,,,,,,,,,,,,,,,,,,,,,,,2,001,2022-09-26_15h38.27.159,test9,2022.1.4,59.93935336798542,
,,,,,,,,2,nBack2Cond.xlsx,121,4,-0.2,0,None,2,156,,,,,,,,,,,,,0,1,1,1,0,36,36,36,,,,,,,,,,,,,,,,,,,,,,,,,,,,,,,,,,,,,,,,,,,,,,,,,,,,,,,,,,,,None,334.7819930000114,None,334.7819930000114,335.79388140002266,335.7773922000197,None,334.7819930000114,None,334.7819930000114,None,334.7819930000114,None,334.7819930000114,None,334.7819930000114,None,334.7819930000114,None,334.7819930000114,None,334.7819930000114,None,,,,,,,,,,,,,,,,,,,,,,,,,2,001,2022-09-26_15h38.27.159,test9,2022.1.4,59.93935336798542,
,,,,,,,,2,nBack2Cond.xlsx,121,3,0.2,0.2,None,2,157,,,,,,,,,,,,,0,1,1,1,0,37,37,37,,,,,,,,,,,,,,,,,,,,,,,,,,,,,,,,,,,,,,,,,,,,,,,,,,,,,,,,,,,,None,336.78181160002714,None,336.78181160002714,337.7937985000317,337.77777000004426,None,336.78181160002714,None,336.78181160002714,None,336.78181160002714,None,336.78181160002714,None,336.78181160002714,None,336.78181160002714,None,336.78181160002714,None,336.78181160002714,None,,,,,,,,,,,,,,,,,,,,,,,,,2,001,2022-09-26_15h38.27.159,test9,2022.1.4,59.93935336798542,
,,,,,,,,2,nBack2Cond.xlsx,121,8,0,-0.2,None,2,158,,,,,,,,,,,,,0,1,1,1,0,38,38,38,,,,,,,,,,,,,,,,,,,,,,,,,,,,,,,,,,,,,,,,,,,,,,,,,,,,,,,,,,,,None,338.7798405000358,None,338.7798405000358,339.79380560002755,339.77743190003093,None,338.7798405000358,None,338.7798405000358,None,338.7798405000358,None,338.7798405000358,None,338.7798405000358,None,338.7798405000358,None,338.7798405000358,None,338.7798405000358,None,,,,,,,,,,,,,,,,,,,,,,,,,2,001,2022-09-26_15h38.27.159,test9,2022.1.4,59.93935336798542,
,,,,,,,,2,nBack2Cond.xlsx,121,3,0.2,0.2,space,2,159,,,,,,,,,,,,,0,1,1,1,0,39,39,39,,,,,,,,,,,,,,,,,,,,,,,,,,,,,,,,,,,,,,,,,,,,,,,,,,,,,,,,,,,,space,340.7809923000168,None,340.7809923000168,341.793931799999,341.77719719999004,None,340.7809923000168,None,340.7809923000168,None,340.7809923000168,None,340.7809923000168,None,340.7809923000168,None,340.7809923000168,None,340.7809923000168,None,340.7809923000168,None,0.3368100000079721,,,,,,,,,,,,,,,,,,,,,,,,2,001,2022-09-26_15h38.27.159,test9,2022.1.4,59.93935336798542,
,,,,,,,,2,nBack2Cond.xlsx,121,1,-0.2,0.2,None,2,160,,,,,,,,,,,,,0,1,1,1,0,40,40,40,,,,,,,,,,,,,,,,,,,,,,,,,,,,,,,,,,,,,,,,,,,,,,,,,,,,,,,,,,,,None,342.7803967000218,None,342.7803967000218,343.7940329000121,343.7772485000314,None,342.7803967000218,None,342.7803967000218,None,342.7803967000218,None,342.7803967000218,None,342.7803967000218,None,342.7803967000218,None,342.7803967000218,None,342.7803967000218,None,,,,,,,,,,,,,,,,,,,,,,,,,2,001,2022-09-26_15h38.27.159,test9,2022.1.4,59.93935336798542,
,,,,,,,,2,nBack2Cond.xlsx,121,4,-0.2,0,None,2,161,,,,,,,,,,,,,0,1,1,1,0,41,41,41,,,,,,,,,,,,,,,,,,,,,,,,,,,,,,,,,,,,,,,,,,,,,,,,,,,,,,,,,,,,None,344.7806927000056,None,344.7806927000056,345.7938135000295,345.77730610000435,None,344.7806927000056,None,344.7806927000056,None,344.7806927000056,None,344.7806927000056,None,344.7806927000056,None,344.7806927000056,None,344.7806927000056,None,344.7806927000056,None,,,,,,,,,,,,,,,,,,,,,,,,,2,001,2022-09-26_15h38.27.159,test9,2022.1.4,59.93935336798542,
,,,,,,,,2,nBack2Cond.xlsx,121,2,0,0.2,None,2,162,,,,,,,,,,,,,0,1,1,1,0,42,42,42,,,,,,,,,,,,,,,,,,,,,,,,,,,,,,,,,,,,,,,,,,,,,,,,,,,,,,,,,,,,None,346.7795810000389,None,346.7795810000389,347.79370259999996,347.77725899999496,None,346.7795810000389,None,346.7795810000389,None,346.7795810000389,None,346.7795810000389,None,346.7795810000389,None,346.7795810000389,None,346.7795810000389,None,346.7795810000389,None,,,,,,,,,,,,,,,,,,,,,,,,,2,001,2022-09-26_15h38.27.159,test9,2022.1.4,59.93935336798542,
,,,,,,,,2,nBack2Cond.xlsx,121,4,-0.2,0,space,2,163,,,,,,,,,,,,,0,1,1,1,0,43,43,43,,,,,,,,,,,,,,,,,,,,,,,,,,,,,,,,,,,,,,,,,,,,,,,,,,,,,,,,,,,,space,348.7789888000116,None,348.7789888000116,349.79371629998786,349.77721400000155,None,348.7789888000116,None,348.7789888000116,None,348.7789888000116,None,348.7789888000116,None,348.7789888000116,None,348.7789888000116,None,348.7789888000116,None,348.7789888000116,None,0.5706615000381134,,,,,,,,,,,,,,,,,,,,,,,,2,001,2022-09-26_15h38.27.159,test9,2022.1.4,59.93935336798542,
,,,,,,,,2,nBack2Cond.xlsx,121,8,0,-0.2,None,2,164,,,,,,,,,,,,,0,1,1,1,0,44,44,44,,,,,,,,,,,,,,,,,,,,,,,,,,,,,,,,,,,,,,,,,,,,,,,,,,,,,,,,,,,,None,350.78075959999114,None,350.78075959999114,351.7936406999943,351.77722879999783,None,350.78075959999114,None,350.78075959999114,None,350.78075959999114,None,350.78075959999114,None,350.78075959999114,None,350.78075959999114,None,350.78075959999114,None,350.78075959999114,None,,,,,,,,,,,,,,,,,,,,,,,,,2,001,2022-09-26_15h38.27.159,test9,2022.1.4,59.93935336798542,
,,,,,,,,2,nBack2Cond.xlsx,121,5,0,0,None,2,165,,,,,,,,,,,,,0,1,1,1,0,45,45,45,,,,,,,,,,,,,,,,,,,,,,,,,,,,,,,,,,,,,,,,,,,,,,,,,,,,,,,,,,,,None,352.77993040002184,None,352.77993040002184,353.79383119998965,353.7772818999947,None,352.77993040002184,None,352.77993040002184,None,352.77993040002184,None,352.77993040002184,None,352.77993040002184,None,352.77993040002184,None,352.77993040002184,None,352.77993040002184,None,,,,,,,,,,,,,,,,,,,,,,,,,2,001,2022-09-26_15h38.27.159,test9,2022.1.4,59.93935336798542,
,,,,,,,,2,nBack2Cond.xlsx,121,1,-0.2,0.2,None,2,166,,,,,,,,,,,,,0,1,1,1,0,46,46,46,,,,,,,,,,,,,,,,,,,,,,,,,,,,,,,,,,,,,,,,,,,,,,,,,,,,,,,,,,,,None,354.7815276000183,None,354.7815276000183,355.79391920001945,355.7777150000329,None,354.7815276000183,None,354.7815276000183,None,354.7815276000183,None,354.7815276000183,None,354.7815276000183,None,354.7815276000183,None,354.7815276000183,None,354.7815276000183,None,,,,,,,,,,,,,,,,,,,,,,,,,2,001,2022-09-26_15h38.27.159,test9,2022.1.4,59.93935336798542,
