eotrial,eocinstr,eocmarker1,eocmarker2,eocmarker3,eocmarker4,itemnumber,itemtext,nbackInstruction,condsFile,nbackmarker1,square,loc1,loc2,corrAns,trialsNum,trialNum,eoecloop.thisRepN,eoecloop.thisTrialN,eoecloop.thisN,eoecloop.thisIndex,wakeup.thisRepN,wakeup.thisTrialN,wakeup.thisN,wakeup.thisIndex,questions.thisRepN,questions.thisTrialN,questions.thisN,questions.thisIndex,nb_taskloop.thisRepN,nb_taskloop.thisTrialN,nb_taskloop.thisN,nb_taskloop.thisIndex,nb_trials.thisRepN,nb_trials.thisTrialN,nb_trials.thisN,nb_trials.thisIndex,key_resp_3.keys,key_resp_3.rt,key_resp_3.started,key_resp_3.stopped,text_4.started,text_4.stopped,mouse_2.x,mouse_2.y,mouse_2.leftButton,mouse_2.midButton,mouse_2.rightButton,mouse_2.started,mouse_2.stopped,h_eoec.started,h_eoec.stopped,text_2.started,text_2.stopped,key_resp.keys,key_resp.started,key_resp.stopped,text_8.started,text_8.stopped,key_resp_10.keys,key_resp_10.started,key_resp_10.stopped,img_whte.started,img_whte.stopped,img_black.started,img_black.stopped,text_5.started,text_5.stopped,key_resp_4.keys,key_resp_4.rt,key_resp_4.started,key_resp_4.stopped,mouse.x,mouse.y,mouse.leftButton,mouse.midButton,mouse.rightButton,mouse.started,mouse.stopped,h_arsq.started,h_arsq.stopped,slider.response,slider.rt,slider.started,slider.stopped,text.started,text.stopped,key_resp_9.keys,key_resp_9.started,key_resp_9.stopped,instrText.started,instrText.stopped,h_nback.started,h_nback.stopped,instrImg.started,instrImg.stopped,trialResp.keys,trialResp.started,trialResp.stopped,trialSquare.started,trialSquare.stopped,trialFix.started,trialFix.stopped,gridLine1.started,gridLine1.stopped,gridLine2.started,gridLine2.stopped,gridLine3.started,gridLine3.stopped,gridLine4.started,gridLine4.stopped,gridLine5.started,gridLine5.stopped,gridLine6.started,gridLine6.stopped,gridLine7.started,gridLine7.stopped,gridLine8.started,gridLine8.stopped,trialResp.rt,endText.started,endText.stopped,key_resp_5.keys,key_resp_5.rt,key_resp_5.started,key_resp_5.stopped,text_6.started,text_6.stopped,key_resp_6.keys,key_resp_6.rt,key_resp_6.started,key_resp_6.stopped,h_movie.started,h_movie.stopped,key_resp_8.keys,key_resp_8.rt,key_resp_8.started,key_resp_8.stopped,text_7.started,text_7.stopped,key_resp_7.keys,key_resp_7.started,key_resp_7.stopped,participant,session,date,expName,psychopyVersion,frameRate,
,,,,,,,,,,,,,,,,,,,,,,,,,,,,,,,,,,,,,space,4.472668900038116,12.682931200019084,None,,,,,,,,,,,,,,,,,,,,,,,,,,,,,,,,,,,,,,,,,,,,,,,,,,,,,,,,,,,,,,,,,,,,,,,,,,,,,,,,,,,,,,,,,,,,,,,,,,,,,,,3,001,2022-09-26_15h56.45.811,test9,2022.1.4,59.99246493791647,
,,,,,,,,,,,,,,,,,,,,,,,,,,,,,,,,,,,,,,,,,12.682931200019084,None,0.88796294,-0.12407407,0,0,0,0.0007967499550431967,None,,,,,,,,,,,,,,,,,,,,,,,,,,,,,,,,,,,,,,,,,,,,,,,,,,,,,,,,,,,,,,,,,,,,,,,,,,,,,,,,,,,,,,,,,,,,,,3,001,2022-09-26_15h56.45.811,test9,2022.1.4,59.99246493791647,
1,eyes open,11,12,13,14,,,,,,,,,,,,0,0,0,0,,,,,,,,,,,,,,,,,,,,,,,,,,,,,,12.682931200019084,None,17.193424900004175,None,None,17.193424900004175,None,19.203042900015134,None,None,19.203042900015134,None,,,,,,,,,,,,,,,,,,,,,,,,,,,,,,,,,,,,,,,,,,,,,,,,,,,,,,,,,,,,,,,,,,,,,,,,,,,,,,,,,,3,001,2022-09-26_15h56.45.811,test9,2022.1.4,59.99246493791647,
2,eyes closed,21,22,23,24,,,,,,,,,,,,0,1,1,1,,,,,,,,,,,,,,,,,,,,,,,,,,,,,,,,199.2053063000203,None,None,199.2053063000203,None,201.20245689997682,None,None,201.20245689997682,None,,,,,,,,,,,,,,,,,,,,,,,,,,,,,,,,,,,,,,,,,,,,,,,,,,,,,,,,,,,,,,,,,,,,,,,,,,,,,,,,,,3,001,2022-09-26_15h56.45.811,test9,2022.1.4,59.99246493791647,
,,,,,,,,,,,,,,,,,,,,,0,0,0,0,,,,,,,,,,,,,,,,,,,,,,,,,,,,,,,,,,,,,,381.2013971999986,None,381.40138090000255,None,,,,,,,,,,,,,,,,,,,,,,,,,,,,,,,,,,,,,,,,,,,,,,,,,,,,,,,,,,,,,,,,,,,,,,,,,,,,,,3,001,2022-09-26_15h56.45.811,test9,2022.1.4,59.99246493791647,
,,,,,,,,,,,,,,,,,,,,,1,0,1,0,,,,,,,,,,,,,,,,,,,,,,,,,,,,,,,,,,,,,,381.6013374000322,None,381.8013454999891,None,,,,,,,,,,,,,,,,,,,,,,,,,,,,,,,,,,,,,,,,,,,,,,,,,,,,,,,,,,,,,,,,,,,,,,,,,,,,,,3,001,2022-09-26_15h56.45.811,test9,2022.1.4,59.99246493791647,
,,,,,,,,,,,,,,,,,,,,,2,0,2,0,,,,,,,,,,,,,,,,,,,,,,,,,,,,,,,,,,,,,,382.0011707000085,None,382.2013793999795,None,,,,,,,,,,,,,,,,,,,,,,,,,,,,,,,,,,,,,,,,,,,,,,,,,,,,,,,,,,,,,,,,,,,,,,,,,,,,,,3,001,2022-09-26_15h56.45.811,test9,2022.1.4,59.99246493791647,
,,,,,,,,,,,,,,,,,,,,,3,0,3,0,,,,,,,,,,,,,,,,,,,,,,,,,,,,,,,,,,,,,,382.4014337999979,None,382.60149480000837,None,,,,,,,,,,,,,,,,,,,,,,,,,,,,,,,,,,,,,,,,,,,,,,,,,,,,,,,,,,,,,,,,,,,,,,,,,,,,,,3,001,2022-09-26_15h56.45.811,test9,2022.1.4,59.99246493791647,
,,,,,,,,,,,,,,,,,,,,,,,,,,,,,,,,,,,,,,,,,,,,,,,,,,,,,,,,,,,,,,,,,,382.8017525000032,None,space,5.531626000010874,382.8017525000032,None,,,,,,,,,,,,,,,,,,,,,,,,,,,,,,,,,,,,,,,,,,,,,,,,,,,,,,,,,,,,,,,,,,,,,,,,3,001,2022-09-26_15h56.45.811,test9,2022.1.4,59.99246493791647,
,,,,,,,,,,,,,,,,,,,,,,,,,,,,,,,,,,,,,,,,,,,,,,,,,,,,,,,,,,,,,,,,,,,,,,,,0.88796294,-0.12407407,0,0,0,0.016193650022614747,None,,,,,,,,,,,,,,,,,,,,,,,,,,,,,,,,,,,,,,,,,,,,,,,,,,,,,,,,,,,,,,,,,3,001,2022-09-26_15h56.45.811,test9,2022.1.4,59.99246493791647,
,,,,,,22,I felt ill,,,,,,,,,,,,,,,,,,0,0,0,21,,,,,,,,,,,,,,,,,,,,,,,,,,,,,,,,,,,,,,,,,,,,,,,,,,,382.8017525000032,None,1.0,2.9283222000231035,388.39193610002985,None,388.39193610002985,None,None,388.39193610002985,None,,,,,,,,,,,,,,,,,,,,,,,,,,,,,,,,,,,,,,,,,,,,,,,,,,,,,,3,001,2022-09-26_15h56.45.811,test9,2022.1.4,59.99246493791647,
,,,,,,32,I had difficulty remembering my feelings,,,,,,,,,,,,,,,,,,0,1,1,31,,,,,,,,,,,,,,,,,,,,,,,,,,,,,,,,,,,,,,,,,,,,,,,,,,,,,3.0,2.700932700012345,391.5334571999847,None,391.5334571999847,None,None,391.5334571999847,None,,,,,,,,,,,,,,,,,,,,,,,,,,,,,,,,,,,,,,,,,,,,,,,,,,,,,,3,001,2022-09-26_15h56.45.811,test9,2022.1.4,59.99246493791647,
,,,,,,15,I had difficulty staying awake,,,,,,,,,,,,,,,,,,0,2,2,14,,,,,,,,,,,,,,,,,,,,,,,,,,,,,,,,,,,,,,,,,,,,,,,,,,,,,2.0,2.067099399981089,394.4648636999773,None,394.4648636999773,None,None,394.4648636999773,None,,,,,,,,,,,,,,,,,,,,,,,,,,,,,,,,,,,,,,,,,,,,,,,,,,,,,,3,001,2022-09-26_15h56.45.811,test9,2022.1.4,59.99246493791647,
,,,,,,19,I was conscious of my body,,,,,,,,,,,,,,,,,,0,3,3,18,,,,,,,,,,,,,,,,,,,,,,,,,,,,,,,,,,,,,,,,,,,,,,,,,,,,,4.0,2.635244800010696,396.7626474000281,None,396.7626474000281,None,None,396.7626474000281,None,,,,,,,,,,,,,,,,,,,,,,,,,,,,,,,,,,,,,,,,,,,,,,,,,,,,,,3,001,2022-09-26_15h56.45.811,test9,2022.1.4,59.99246493791647,
,,,,,,11,I thought about solving problems,,,,,,,,,,,,,,,,,,0,4,4,10,,,,,,,,,,,,,,,,,,,,,,,,,,,,,,,,,,,,,,,,,,,,,,,,,,,,,2.0,2.668941999960225,399.63154640002176,None,399.63154640002176,None,None,399.63154640002176,None,,,,,,,,,,,,,,,,,,,,,,,,,,,,,,,,,,,,,,,,,,,,,,,,,,,,,,3,001,2022-09-26_15h56.45.811,test9,2022.1.4,59.99246493791647,
,,,,,,9,I thought about myself,,,,,,,,,,,,,,,,,,0,5,5,8,,,,,,,,,,,,,,,,,,,,,,,,,,,,,,,,,,,,,,,,,,,,,,,,,,,,,4.0,3.0504715999704786,402.52954540000064,None,402.52954540000064,None,None,402.52954540000064,None,,,,,,,,,,,,,,,,,,,,,,,,,,,,,,,,,,,,,,,,,,,,,,,,,,,,,,3,001,2022-09-26_15h56.45.811,test9,2022.1.4,59.99246493791647,
,,,,,,35,I was able to rate the statements,,,,,,,,,,,,,,,,,,0,6,6,34,,,,,,,,,,,,,,,,,,,,,,,,,,,,,,,,,,,,,,,,,,,,,,,,,,,,,2.0,3.4174760000314564,405.81183570000576,None,405.81183570000576,None,None,405.81183570000576,None,,,,,,,,,,,,,,,,,,,,,,,,,,,,,,,,,,,,,,,,,,,,,,,,,,,,,,3,001,2022-09-26_15h56.45.811,test9,2022.1.4,59.99246493791647,
,,,,,,20,I thought about my breathing,,,,,,,,,,,,,,,,,,0,7,7,19,,,,,,,,,,,,,,,,,,,,,,,,,,,,,,,,,,,,,,,,,,,,,,,,,,,,,4.0,3.918065799982287,409.4631186000188,None,409.4631186000188,None,None,409.4631186000188,None,,,,,,,,,,,,,,,,,,,,,,,,,,,,,,,,,,,,,,,,,,,,,,,,,,,,,,3,001,2022-09-26_15h56.45.811,test9,2022.1.4,59.99246493791647,
,,,,,,21,I thought about my heartbeat,,,,,,,,,,,,,,,,,,0,8,8,20,,,,,,,,,,,,,,,,,,,,,,,,,,,,,,,,,,,,,,,,,,,,,,,,,,,,,3.0,2.4681033000233583,413.6126125000301,None,413.6126125000301,None,None,413.6126125000301,None,,,,,,,,,,,,,,,,,,,,,,,,,,,,,,,,,,,,,,,,,,,,,,,,,,,,,,3,001,2022-09-26_15h56.45.811,test9,2022.1.4,59.99246493791647,
,,,,,,33,I felt motivated to participate,,,,,,,,,,,,,,,,,,0,9,9,32,,,,,,,,,,,,,,,,,,,,,,,,,,,,,,,,,,,,,,,,,,,,,,,,,,,,,3.0,2.2675874999840744,416.3133189000073,None,416.3133189000073,None,None,416.3133189000073,None,,,,,,,,,,,,,,,,,,,,,,,,,,,,,,,,,,,,,,,,,,,,,,,,,,,,,,3,001,2022-09-26_15h56.45.811,test9,2022.1.4,59.99246493791647,
,,,,,,27,I pictured places,,,,,,,,,,,,,,,,,,0,10,10,26,,,,,,,,,,,,,,,,,,,,,,,,,,,,,,,,,,,,,,,,,,,,,,,,,,,,,2.0,1.951947099994868,418.81313820002833,None,418.81313820002833,None,None,418.81313820002833,None,,,,,,,,,,,,,,,,,,,,,,,,,,,,,,,,,,,,,,,,,,,,,,,,,,,,,,3,001,2022-09-26_15h56.45.811,test9,2022.1.4,59.99246493791647,
,,,,,,24,I felt pain,,,,,,,,,,,,,,,,,,0,11,11,23,,,,,,,,,,,,,,,,,,,,,,,,,,,,,,,,,,,,,,,,,,,,,,,,,,,,,1.0,1.2837849000352435,420.9954577999888,None,420.9954577999888,None,None,420.9954577999888,None,,,,,,,,,,,,,,,,,,,,,,,,,,,,,,,,,,,,,,,,,,,,,,,,,,,,,,3,001,2022-09-26_15h56.45.811,test9,2022.1.4,59.99246493791647,
,,,,,,5,I placed myself in other peoples shoes,,,,,,,,,,,,,,,,,,0,12,12,4,,,,,,,,,,,,,,,,,,,,,,,,,,,,,,,,,,,,,,,,,,,,,,,,,,,,,1.0,1.918435400002636,422.51255380001385,None,422.51255380001385,None,None,422.51255380001385,None,,,,,,,,,,,,,,,,,,,,,,,,,,,,,,,,,,,,,,,,,,,,,,,,,,,,,,3,001,2022-09-26_15h56.45.811,test9,2022.1.4,59.99246493791647,
,,,,,,29,I thought in words,,,,,,,,,,,,,,,,,,0,13,13,28,,,,,,,,,,,,,,,,,,,,,,,,,,,,,,,,,,,,,,,,,,,,,,,,,,,,,2.0,2.366720299993176,424.6627885000198,None,424.6627885000198,None,None,424.6627885000198,None,,,,,,,,,,,,,,,,,,,,,,,,,,,,,,,,,,,,,,,,,,,,,,,,,,,,,,3,001,2022-09-26_15h56.45.811,test9,2022.1.4,59.99246493791647,
,,,,,,34,I had my eyes closed,,,,,,,,,,,,,,,,,,0,14,14,33,,,,,,,,,,,,,,,,,,,,,,,,,,,,,,,,,,,,,,,,,,,,,,,,,,,,,4.0,6.318470800004434,427.26170390000334,None,427.26170390000334,None,None,427.26170390000334,None,,,,,,,,,,,,,,,,,,,,,,,,,,,,,,,,,,,,,,,,,,,,,,,,,,,,,,3,001,2022-09-26_15h56.45.811,test9,2022.1.4,59.99246493791647,
,,,,,,10,I thought about things I need to do,,,,,,,,,,,,,,,,,,0,15,15,9,,,,,,,,,,,,,,,,,,,,,,,,,,,,,,,,,,,,,,,,,,,,,,,,,,,,,3.0,5.435059700044803,433.81254569999874,None,433.81254569999874,None,None,433.81254569999874,None,,,,,,,,,,,,,,,,,,,,,,,,,,,,,,,,,,,,,,,,,,,,,,,,,,,,,,3,001,2022-09-26_15h56.45.811,test9,2022.1.4,59.99246493791647,
,,,,,,6,I thought about people I like,,,,,,,,,,,,,,,,,,0,16,16,5,,,,,,,,,,,,,,,,,,,,,,,,,,,,,,,,,,,,,,,,,,,,,,,,,,,,,4.0,3.4185369000188075,439.4812970000203,None,439.4812970000203,None,None,439.4812970000203,None,,,,,,,,,,,,,,,,,,,,,,,,,,,,,,,,,,,,,,,,,,,,,,,,,,,,,,3,001,2022-09-26_15h56.45.811,test9,2022.1.4,59.99246493791647,
,,,,,,12,I thought about the future,,,,,,,,,,,,,,,,,,0,17,17,11,,,,,,,,,,,,,,,,,,,,,,,,,,,,,,,,,,,,,,,,,,,,,,,,,,,,,4.0,4.200349399994593,443.1302317000227,None,443.1302317000227,None,None,443.1302317000227,None,,,,,,,,,,,,,,,,,,,,,,,,,,,,,,,,,,,,,,,,,,,,,,,,,,,,,,3,001,2022-09-26_15h56.45.811,test9,2022.1.4,59.99246493791647,
,,,,,,2,I had rapidly switching thoughts,,,,,,,,,,,,,,,,,,0,18,18,1,,,,,,,,,,,,,,,,,,,,,,,,,,,,,,,,,,,,,,,,,,,,,,,,,,,,,3.0,2.9687369000166655,447.56340390001424,None,447.56340390001424,None,None,447.56340390001424,None,,,,,,,,,,,,,,,,,,,,,,,,,,,,,,,,,,,,,,,,,,,,,,,,,,,,,,3,001,2022-09-26_15h56.45.811,test9,2022.1.4,59.99246493791647,
,,,,,,3,I had difficulty holding on to my thoughts,,,,,,,,,,,,,,,,,,0,19,19,2,,,,,,,,,,,,,,,,,,,,,,,,,,,,,,,,,,,,,,,,,,,,,,,,,,,,,2.0,4.250593499979004,450.76436020003166,None,450.76436020003166,None,None,450.76436020003166,None,,,,,,,,,,,,,,,,,,,,,,,,,,,,,,,,,,,,,,,,,,,,,,,,,,,,,,3,001,2022-09-26_15h56.45.811,test9,2022.1.4,59.99246493791647,
,,,,,,17,I felt relaxed,,,,,,,,,,,,,,,,,,0,20,20,16,,,,,,,,,,,,,,,,,,,,,,,,,,,,,,,,,,,,,,,,,,,,,,,,,,,,,5.0,2.4337232999969274,455.2510920999921,None,455.2510920999921,None,None,455.2510920999921,None,,,,,,,,,,,,,,,,,,,,,,,,,,,,,,,,,,,,,,,,,,,,,,,,,,,,,,3,001,2022-09-26_15h56.45.811,test9,2022.1.4,59.99246493791647,
,,,,,,26,I thought in images,,,,,,,,,,,,,,,,,,0,21,21,25,,,,,,,,,,,,,,,,,,,,,,,,,,,,,,,,,,,,,,,,,,,,,,,,,,,,,3.0,5.68411750002997,457.912750700023,None,457.912750700023,None,None,457.912750700023,None,,,,,,,,,,,,,,,,,,,,,,,,,,,,,,,,,,,,,,,,,,,,,,,,,,,,,,3,001,2022-09-26_15h56.45.811,test9,2022.1.4,59.99246493791647,
,,,,,,1,I had busy thoughts,,,,,,,,,,,,,,,,,,0,22,22,0,,,,,,,,,,,,,,,,,,,,,,,,,,,,,,,,,,,,,,,,,,,,,,,,,,,,,2.0,2.5191375999711454,463.829668499995,None,463.829668499995,None,None,463.829668499995,None,,,,,,,,,,,,,,,,,,,,,,,,,,,,,,,,,,,,,,,,,,,,,,,,,,,,,,3,001,2022-09-26_15h56.45.811,test9,2022.1.4,59.99246493791647,
,,,,,,13,I felt tired,,,,,,,,,,,,,,,,,,0,23,23,12,,,,,,,,,,,,,,,,,,,,,,,,,,,,,,,,,,,,,,,,,,,,,,,,,,,,,2.0,4.367086899990682,466.57970000000205,None,466.57970000000205,None,None,466.57970000000205,None,,,,,,,,,,,,,,,,,,,,,,,,,,,,,,,,,,,,,,,,,,,,,,,,,,,,,,3,001,2022-09-26_15h56.45.811,test9,2022.1.4,59.99246493791647,
,,,,,,7,I thought about my feelings,,,,,,,,,,,,,,,,,,0,24,24,6,,,,,,,,,,,,,,,,,,,,,,,,,,,,,,,,,,,,,,,,,,,,,,,,,,,,,2.0,3.217703200003598,471.17869670002256,None,471.17869670002256,None,None,471.17869670002256,None,,,,,,,,,,,,,,,,,,,,,,,,,,,,,,,,,,,,,,,,,,,,,,,,,,,,,,3,001,2022-09-26_15h56.45.811,test9,2022.1.4,59.99246493791647,
,,,,,,16,I felt comfortable,,,,,,,,,,,,,,,,,,0,25,25,15,,,,,,,,,,,,,,,,,,,,,,,,,,,,,,,,,,,,,,,,,,,,,,,,,,,,,4.0,1.6693012999603525,474.6281264999998,None,474.6281264999998,None,None,474.6281264999998,None,,,,,,,,,,,,,,,,,,,,,,,,,,,,,,,,,,,,,,,,,,,,,,,,,,,,,,3,001,2022-09-26_15h56.45.811,test9,2022.1.4,59.99246493791647,
,,,,,,30,I imagined talking to myself,,,,,,,,,,,,,,,,,,0,26,26,29,,,,,,,,,,,,,,,,,,,,,,,,,,,,,,,,,,,,,,,,,,,,,,,,,,,,,2.0,4.151847500004806,476.52964500000235,None,476.52964500000235,None,None,476.52964500000235,None,,,,,,,,,,,,,,,,,,,,,,,,,,,,,,,,,,,,,,,,,,,,,,,,,,,,,,3,001,2022-09-26_15h56.45.811,test9,2022.1.4,59.99246493791647,
,,,,,,14,I felt sleepy,,,,,,,,,,,,,,,,,,0,27,27,13,,,,,,,,,,,,,,,,,,,,,,,,,,,,,,,,,,,,,,,,,,,,,,,,,,,,,2.0,1.8505415000254288,480.9148464000318,None,480.9148464000318,None,None,480.9148464000318,None,,,,,,,,,,,,,,,,,,,,,,,,,,,,,,,,,,,,,,,,,,,,,,,,,,,,,,3,001,2022-09-26_15h56.45.811,test9,2022.1.4,59.99246493791647,
,,,,,,8,I thought about my behavior,,,,,,,,,,,,,,,,,,0,28,28,7,,,,,,,,,,,,,,,,,,,,,,,,,,,,,,,,,,,,,,,,,,,,,,,,,,,,,2.0,3.5014784999657422,482.99522640003124,None,482.99522640003124,None,None,482.99522640003124,None,,,,,,,,,,,,,,,,,,,,,,,,,,,,,,,,,,,,,,,,,,,,,,,,,,,,,,3,001,2022-09-26_15h56.45.811,test9,2022.1.4,59.99246493791647,
,,,,,,4,I thought about others,,,,,,,,,,,,,,,,,,0,29,29,3,,,,,,,,,,,,,,,,,,,,,,,,,,,,,,,,,,,,,,,,,,,,,,,,,,,,,3.0,3.5176275999983773,486.73005130002275,None,486.73005130002275,None,None,486.73005130002275,None,,,,,,,,,,,,,,,,,,,,,,,,,,,,,,,,,,,,,,,,,,,,,,,,,,,,,,3,001,2022-09-26_15h56.45.811,test9,2022.1.4,59.99246493791647,
,,,,,,28,I had silent conversations,,,,,,,,,,,,,,,,,,0,30,30,27,,,,,,,,,,,,,,,,,,,,,,,,,,,,,,,,,,,,,,,,,,,,,,,,,,,,,3.0,4.7835204000002705,490.48029550001957,None,490.48029550001957,None,None,490.48029550001957,None,,,,,,,,,,,,,,,,,,,,,,,,,,,,,,,,,,,,,,,,,,,,,,,,,,,,,,3,001,2022-09-26_15h56.45.811,test9,2022.1.4,59.99246493791647,
,,,,,,25,I pictured events,,,,,,,,,,,,,,,,,,0,31,31,24,,,,,,,,,,,,,,,,,,,,,,,,,,,,,,,,,,,,,,,,,,,,,,,,,,,,,2.0,3.0846525999950245,495.4964686000021,None,495.4964686000021,None,None,495.4964686000021,None,,,,,,,,,,,,,,,,,,,,,,,,,,,,,,,,,,,,,,,,,,,,,,,,,,,,,,3,001,2022-09-26_15h56.45.811,test9,2022.1.4,59.99246493791647,
,,,,,,23,I thought about my health,,,,,,,,,,,,,,,,,,0,32,32,22,,,,,,,,,,,,,,,,,,,,,,,,,,,,,,,,,,,,,,,,,,,,,,,,,,,,,2.0,1.8179468999733217,498.8117788999807,None,498.8117788999807,None,None,498.8117788999807,None,,,,,,,,,,,,,,,,,,,,,,,,,,,,,,,,,,,,,,,,,,,,,,,,,,,,,,3,001,2022-09-26_15h56.45.811,test9,2022.1.4,59.99246493791647,
,,,,,,31,I had difficulty remembering my thoughts,,,,,,,,,,,,,,,,,,0,33,33,30,,,,,,,,,,,,,,,,,,,,,,,,,,,,,,,,,,,,,,,,,,,,,,,,,,,,,2.0,2.2349709999980405,500.8627646000241,None,500.8627646000241,None,None,500.8627646000241,None,,,,,,,,,,,,,,,,,,,,,,,,,,,,,,,,,,,,,,,,,,,,,,,,,,,,,,3,001,2022-09-26_15h56.45.811,test9,2022.1.4,59.99246493791647,
,,,,,,18,I felt happy,,,,,,,,,,,,,,,,,,0,34,34,17,,,,,,,,,,,,,,,,,,,,,,,,,,,,,,,,,,,,,,,,,,,,,,,,,,,,,4.0,3.6172454000334255,503.3294274000218,None,503.3294274000218,None,None,503.3294274000218,None,,,,,,,,,,,,,,,,,,,,,,,,,,,,,,,,,,,,,,,,,,,,,,,,,,,,,,3,001,2022-09-26_15h56.45.811,test9,2022.1.4,59.99246493791647,
,,,,,,,,1,nBack1Cond.xlsx,111,6,0.2,0,None,1,1,,,,,,,,,,,,,0,0,0,0,0,0,0,0,,,,,,,,,,,,,,,,,,,,,,,,,,,,,,,,,,,,,,,,,,,,,,,,,,,,,,507.2417590999976,None,507.2417590999976,None,507.2417590999976,None,None,509.6909196000197,None,509.6909196000197,510.7019020000007,510.68453820003197,None,509.6909196000197,None,509.6909196000197,None,509.6909196000197,None,509.6909196000197,None,509.6909196000197,None,509.6909196000197,None,509.6909196000197,None,509.6909196000197,None,,,,,,,,,,,,,,,,,,,,,,,,,3,001,2022-09-26_15h56.45.811,test9,2022.1.4,59.99246493791647,
,,,,,,,,1,nBack1Cond.xlsx,111,6,0.2,0,space,1,2,,,,,,,,,,,,,0,0,0,0,0,1,1,1,,,,,,,,,,,,,,,,,,,,,,,,,,,,,,,,,,,,,,,,,,,,,,,,,,,,,,,,,,,,space,511.68967599997995,None,511.68967599997995,512.7016074000276,512.6846457999782,None,511.68967599997995,None,511.68967599997995,None,511.68967599997995,None,511.68967599997995,None,511.68967599997995,None,511.68967599997995,None,511.68967599997995,None,511.68967599997995,None,0.5787419999833219,,,,,,,,,,,,,,,,,,,,,,,,3,001,2022-09-26_15h56.45.811,test9,2022.1.4,59.99246493791647,
,,,,,,,,1,nBack1Cond.xlsx,111,2,0,0.2,None,1,3,,,,,,,,,,,,,0,0,0,0,0,2,2,2,,,,,,,,,,,,,,,,,,,,,,,,,,,,,,,,,,,,,,,,,,,,,,,,,,,,,,,,,,,,None,513.6874897999805,None,513.6874897999805,514.7017384999781,514.6846051000175,None,513.6874897999805,None,513.6874897999805,None,513.6874897999805,None,513.6874897999805,None,513.6874897999805,None,513.6874897999805,None,513.6874897999805,None,513.6874897999805,None,,,,,,,,,,,,,,,,,,,,,,,,,3,001,2022-09-26_15h56.45.811,test9,2022.1.4,59.99246493791647,
,,,,,,,,1,nBack1Cond.xlsx,111,9,0.2,-0.2,None,1,4,,,,,,,,,,,,,0,0,0,0,0,3,3,3,,,,,,,,,,,,,,,,,,,,,,,,,,,,,,,,,,,,,,,,,,,,,,,,,,,,,,,,,,,,None,515.6868716999888,None,515.6868716999888,516.7019823000301,516.6846616999828,None,515.6868716999888,None,515.6868716999888,None,515.6868716999888,None,515.6868716999888,None,515.6868716999888,None,515.6868716999888,None,515.6868716999888,None,515.6868716999888,None,,,,,,,,,,,,,,,,,,,,,,,,,3,001,2022-09-26_15h56.45.811,test9,2022.1.4,59.99246493791647,
,,,,,,,,1,nBack1Cond.xlsx,111,9,0.2,-0.2,space,1,5,,,,,,,,,,,,,0,0,0,0,0,4,4,4,,,,,,,,,,,,,,,,,,,,,,,,,,,,,,,,,,,,,,,,,,,,,,,,,,,,,,,,,,,,space,517.6886978999828,None,517.6886978999828,518.7017418000032,518.6847865000018,None,517.6886978999828,None,517.6886978999828,None,517.6886978999828,None,517.6886978999828,None,517.6886978999828,None,517.6886978999828,None,517.6886978999828,None,517.6886978999828,None,0.72501990001183,,,,,,,,,,,,,,,,,,,,,,,,3,001,2022-09-26_15h56.45.811,test9,2022.1.4,59.99246493791647,
,,,,,,,,1,nBack1Cond.xlsx,111,6,0.2,0,None,1,6,,,,,,,,,,,,,0,0,0,0,0,5,5,5,,,,,,,,,,,,,,,,,,,,,,,,,,,,,,,,,,,,,,,,,,,,,,,,,,,,,,,,,,,,None,519.6864655999816,None,519.6864655999816,520.7016479999875,520.6860815000255,None,519.6864655999816,None,519.6864655999816,None,519.6864655999816,None,519.6864655999816,None,519.6864655999816,None,519.6864655999816,None,519.6864655999816,None,519.6864655999816,None,,,,,,,,,,,,,,,,,,,,,,,,,3,001,2022-09-26_15h56.45.811,test9,2022.1.4,59.99246493791647,
,,,,,,,,1,nBack1Cond.xlsx,111,4,-0.2,0,None,1,7,,,,,,,,,,,,,0,0,0,0,0,6,6,6,,,,,,,,,,,,,,,,,,,,,,,,,,,,,,,,,,,,,,,,,,,,,,,,,,,,,,,,,,,,None,521.6877880999818,None,521.6877880999818,522.7020390999969,522.6846807000111,None,521.6877880999818,None,521.6877880999818,None,521.6877880999818,None,521.6877880999818,None,521.6877880999818,None,521.6877880999818,None,521.6877880999818,None,521.6877880999818,None,,,,,,,,,,,,,,,,,,,,,,,,,3,001,2022-09-26_15h56.45.811,test9,2022.1.4,59.99246493791647,
,,,,,,,,1,nBack1Cond.xlsx,111,3,0.2,0.2,None,1,8,,,,,,,,,,,,,0,0,0,0,0,7,7,7,,,,,,,,,,,,,,,,,,,,,,,,,,,,,,,,,,,,,,,,,,,,,,,,,,,,,,,,,,,,None,523.686883300019,None,523.686883300019,524.7017616999801,524.6847315999912,None,523.686883300019,None,523.686883300019,None,523.686883300019,None,523.686883300019,None,523.686883300019,None,523.686883300019,None,523.686883300019,None,523.686883300019,None,,,,,,,,,,,,,,,,,,,,,,,,,3,001,2022-09-26_15h56.45.811,test9,2022.1.4,59.99246493791647,
,,,,,,,,1,nBack1Cond.xlsx,111,3,0.2,0.2,space,1,9,,,,,,,,,,,,,0,0,0,0,0,8,8,8,,,,,,,,,,,,,,,,,,,,,,,,,,,,,,,,,,,,,,,,,,,,,,,,,,,,,,,,,,,,space,525.6863738999818,None,525.6863738999818,526.7013406000333,526.6846791999997,None,525.6863738999818,None,525.6863738999818,None,525.6863738999818,None,525.6863738999818,None,525.6863738999818,None,525.6863738999818,None,525.6863738999818,None,525.6863738999818,None,0.7743940000073053,,,,,,,,,,,,,,,,,,,,,,,,3,001,2022-09-26_15h56.45.811,test9,2022.1.4,59.99246493791647,
,,,,,,,,1,nBack1Cond.xlsx,111,8,0,-0.2,None,1,10,,,,,,,,,,,,,0,0,0,0,0,9,9,9,,,,,,,,,,,,,,,,,,,,,,,,,,,,,,,,,,,,,,,,,,,,,,,,,,,,,,,,,,,,None,527.6884495000122,None,527.6884495000122,528.7015713999863,528.6846972000203,None,527.6884495000122,None,527.6884495000122,None,527.6884495000122,None,527.6884495000122,None,527.6884495000122,None,527.6884495000122,None,527.6884495000122,None,527.6884495000122,None,,,,,,,,,,,,,,,,,,,,,,,,,3,001,2022-09-26_15h56.45.811,test9,2022.1.4,59.99246493791647,
,,,,,,,,1,nBack1Cond.xlsx,111,1,-0.2,0.2,None,1,11,,,,,,,,,,,,,0,0,0,0,0,10,10,10,,,,,,,,,,,,,,,,,,,,,,,,,,,,,,,,,,,,,,,,,,,,,,,,,,,,,,,,,,,,None,529.6890244000242,None,529.6890244000242,530.7016291000182,530.6847495000111,None,529.6890244000242,None,529.6890244000242,None,529.6890244000242,None,529.6890244000242,None,529.6890244000242,None,529.6890244000242,None,529.6890244000242,None,529.6890244000242,None,,,,,,,,,,,,,,,,,,,,,,,,,3,001,2022-09-26_15h56.45.811,test9,2022.1.4,59.99246493791647,
,,,,,,,,1,nBack1Cond.xlsx,111,2,0,0.2,None,1,12,,,,,,,,,,,,,0,0,0,0,0,11,11,11,,,,,,,,,,,,,,,,,,,,,,,,,,,,,,,,,,,,,,,,,,,,,,,,,,,,,,,,,,,,None,531.6866594000021,None,531.6866594000021,532.7017152000335,532.6849292999832,None,531.6866594000021,None,531.6866594000021,None,531.6866594000021,None,531.6866594000021,None,531.6866594000021,None,531.6866594000021,None,531.6866594000021,None,531.6866594000021,None,,,,,,,,,,,,,,,,,,,,,,,,,3,001,2022-09-26_15h56.45.811,test9,2022.1.4,59.99246493791647,
,,,,,,,,1,nBack1Cond.xlsx,111,4,-0.2,0,None,1,13,,,,,,,,,,,,,0,0,0,0,0,12,12,12,,,,,,,,,,,,,,,,,,,,,,,,,,,,,,,,,,,,,,,,,,,,,,,,,,,,,,,,,,,,None,533.6747390999808,None,533.6747390999808,534.6847942000022,534.6680039999774,535.6682713000337,533.6747390999808,None,533.6747390999808,None,533.6747390999808,None,533.6747390999808,None,533.6747390999808,None,533.6747390999808,None,533.6747390999808,None,533.6747390999808,None,,,,,,,,,,,,,,,,,,,,,,,,,3,001,2022-09-26_15h56.45.811,test9,2022.1.4,59.99246493791647,
,,,,,,,,1,nBack1Cond.xlsx,111,4,-0.2,0,space,1,14,,,,,,,,,,,,,0,0,0,0,0,13,13,13,,,,,,,,,,,,,,,,,,,,,,,,,,,,,,,,,,,,,,,,,,,,,,,,,,,,,,,,,,,,space,535.6882377000293,None,535.6882377000293,536.7017886000103,536.6848715000087,None,535.6882377000293,None,535.6882377000293,None,535.6882377000293,None,535.6882377000293,None,535.6882377000293,None,535.6882377000293,None,535.6882377000293,None,535.6882377000293,None,0.4120412999764085,,,,,,,,,,,,,,,,,,,,,,,,3,001,2022-09-26_15h56.45.811,test9,2022.1.4,59.99246493791647,
,,,,,,,,1,nBack1Cond.xlsx,111,8,0,-0.2,None,1,15,,,,,,,,,,,,,0,0,0,0,0,14,14,14,,,,,,,,,,,,,,,,,,,,,,,,,,,,,,,,,,,,,,,,,,,,,,,,,,,,,,,,,,,,None,537.688033399987,None,537.688033399987,538.701696300006,538.6847485000035,None,537.688033399987,None,537.688033399987,None,537.688033399987,None,537.688033399987,None,537.688033399987,None,537.688033399987,None,537.688033399987,None,537.688033399987,None,,,,,,,,,,,,,,,,,,,,,,,,,3,001,2022-09-26_15h56.45.811,test9,2022.1.4,59.99246493791647,
,,,,,,,,1,nBack1Cond.xlsx,111,5,0,0,None,1,16,,,,,,,,,,,,,0,0,0,0,0,15,15,15,,,,,,,,,,,,,,,,,,,,,,,,,,,,,,,,,,,,,,,,,,,,,,,,,,,,,,,,,,,,None,539.6869868999929,None,539.6869868999929,540.7015248999815,540.6847979000304,None,539.6869868999929,None,539.6869868999929,None,539.6869868999929,None,539.6869868999929,None,539.6869868999929,None,539.6869868999929,None,539.6869868999929,None,539.6869868999929,None,,,,,,,,,,,,,,,,,,,,,,,,,3,001,2022-09-26_15h56.45.811,test9,2022.1.4,59.99246493791647,
,,,,,,,,1,nBack1Cond.xlsx,111,5,0,0,space,1,17,,,,,,,,,,,,,0,0,0,0,0,16,16,16,,,,,,,,,,,,,,,,,,,,,,,,,,,,,,,,,,,,,,,,,,,,,,,,,,,,,,,,,,,,space,541.6736843999824,None,541.6736843999824,542.6847321999958,542.6679923000047,543.6681452000048,541.6736843999824,None,541.6736843999824,None,541.6736843999824,None,541.6736843999824,None,541.6736843999824,None,541.6736843999824,None,541.6736843999824,None,541.6736843999824,None,0.5464207000331953,,,,,,,,,,,,,,,,,,,,,,,,3,001,2022-09-26_15h56.45.811,test9,2022.1.4,59.99246493791647,
,,,,,,,,1,nBack1Cond.xlsx,111,1,-0.2,0.2,None,1,18,,,,,,,,,,,,,0,0,0,0,0,17,17,17,,,,,,,,,,,,,,,,,,,,,,,,,,,,,,,,,,,,,,,,,,,,,,,,,,,,,,,,,,,,None,543.6866315000225,None,543.6866315000225,544.7016915000277,544.684783899982,None,543.6866315000225,None,543.6866315000225,None,543.6866315000225,None,543.6866315000225,None,543.6866315000225,None,543.6866315000225,None,543.6866315000225,None,543.6866315000225,None,,,,,,,,,,,,,,,,,,,,,,,,,3,001,2022-09-26_15h56.45.811,test9,2022.1.4,59.99246493791647,
,,,,,,,,1,nBack1Cond.xlsx,111,3,0.2,0.2,None,1,19,,,,,,,,,,,,,0,0,0,0,0,18,18,18,,,,,,,,,,,,,,,,,,,,,,,,,,,,,,,,,,,,,,,,,,,,,,,,,,,,,,,,,,,,None,545.6890777000226,None,545.6890777000226,546.7016396999825,546.6848220999818,None,545.6890777000226,None,545.6890777000226,None,545.6890777000226,None,545.6890777000226,None,545.6890777000226,None,545.6890777000226,None,545.6890777000226,None,545.6890777000226,None,,,,,,,,,,,,,,,,,,,,,,,,,3,001,2022-09-26_15h56.45.811,test9,2022.1.4,59.99246493791647,
,,,,,,,,1,nBack1Cond.xlsx,111,6,0.2,0,None,1,20,,,,,,,,,,,,,0,0,0,0,0,19,19,19,,,,,,,,,,,,,,,,,,,,,,,,,,,,,,,,,,,,,,,,,,,,,,,,,,,,,,,,,,,,None,547.6871596000274,None,547.6871596000274,548.7021199000301,548.684690700029,None,547.6871596000274,None,547.6871596000274,None,547.6871596000274,None,547.6871596000274,None,547.6871596000274,None,547.6871596000274,None,547.6871596000274,None,547.6871596000274,None,,,,,,,,,,,,,,,,,,,,,,,,,3,001,2022-09-26_15h56.45.811,test9,2022.1.4,59.99246493791647,
,,,,,,,,1,nBack1Cond.xlsx,111,1,-0.2,0.2,None,1,21,,,,,,,,,,,,,0,0,0,0,0,20,20,20,,,,,,,,,,,,,,,,,,,,,,,,,,,,,,,,,,,,,,,,,,,,,,,,,,,,,,,,,,,,None,549.6866055999999,None,549.6866055999999,550.7016404999886,550.6847394999932,None,549.6866055999999,None,549.6866055999999,None,549.6866055999999,None,549.6866055999999,None,549.6866055999999,None,549.6866055999999,None,549.6866055999999,None,549.6866055999999,None,,,,,,,,,,,,,,,,,,,,,,,,,3,001,2022-09-26_15h56.45.811,test9,2022.1.4,59.99246493791647,
,,,,,,,,1,nBack1Cond.xlsx,111,1,-0.2,0.2,space,1,22,,,,,,,,,,,,,0,0,0,0,0,21,21,21,,,,,,,,,,,,,,,,,,,,,,,,,,,,,,,,,,,,,,,,,,,,,,,,,,,,,,,,,,,,space,551.6865059999982,None,551.6865059999982,552.7019792000065,552.6847995999851,None,551.6865059999982,None,551.6865059999982,None,551.6865059999982,None,551.6865059999982,None,551.6865059999982,None,551.6865059999982,None,551.6865059999982,None,551.6865059999982,None,0.3263771000201814,,,,,,,,,,,,,,,,,,,,,,,,3,001,2022-09-26_15h56.45.811,test9,2022.1.4,59.99246493791647,
,,,,,,,,1,nBack1Cond.xlsx,111,1,-0.2,0.2,space,1,23,,,,,,,,,,,,,0,0,0,0,0,22,22,22,,,,,,,,,,,,,,,,,,,,,,,,,,,,,,,,,,,,,,,,,,,,,,,,,,,,,,,,,,,,space,553.6868259999901,None,553.6868259999901,554.7017239999841,554.6848694999935,None,553.6868259999901,None,553.6868259999901,None,553.6868259999901,None,553.6868259999901,None,553.6868259999901,None,553.6868259999901,None,553.6868259999901,None,553.6868259999901,None,0.6373083000071347,,,,,,,,,,,,,,,,,,,,,,,,3,001,2022-09-26_15h56.45.811,test9,2022.1.4,59.99246493791647,
,,,,,,,,1,nBack1Cond.xlsx,111,3,0.2,0.2,None,1,24,,,,,,,,,,,,,0,0,0,0,0,23,23,23,,,,,,,,,,,,,,,,,,,,,,,,,,,,,,,,,,,,,,,,,,,,,,,,,,,,,,,,,,,,None,555.6894219000242,None,555.6894219000242,556.7020045000245,556.6847642000066,None,555.6894219000242,None,555.6894219000242,None,555.6894219000242,None,555.6894219000242,None,555.6894219000242,None,555.6894219000242,None,555.6894219000242,None,555.6894219000242,None,,,,,,,,,,,,,,,,,,,,,,,,,3,001,2022-09-26_15h56.45.811,test9,2022.1.4,59.99246493791647,
,,,,,,,,1,nBack1Cond.xlsx,111,2,0,0.2,None,1,25,,,,,,,,,,,,,0,0,0,0,0,24,24,24,,,,,,,,,,,,,,,,,,,,,,,,,,,,,,,,,,,,,,,,,,,,,,,,,,,,,,,,,,,,None,557.6866140000056,None,557.6866140000056,558.7018301999778,558.6848854999989,None,557.6866140000056,None,557.6866140000056,None,557.6866140000056,None,557.6866140000056,None,557.6866140000056,None,557.6866140000056,None,557.6866140000056,None,557.6866140000056,None,,,,,,,,,,,,,,,,,,,,,,,,,3,001,2022-09-26_15h56.45.811,test9,2022.1.4,59.99246493791647,
,,,,,,,,1,nBack1Cond.xlsx,111,1,-0.2,0.2,None,1,26,,,,,,,,,,,,,0,0,0,0,0,25,25,25,,,,,,,,,,,,,,,,,,,,,,,,,,,,,,,,,,,,,,,,,,,,,,,,,,,,,,,,,,,,None,559.6878810999915,None,559.6878810999915,560.70222929999,560.6847496000119,None,559.6878810999915,None,559.6878810999915,None,559.6878810999915,None,559.6878810999915,None,559.6878810999915,None,559.6878810999915,None,559.6878810999915,None,559.6878810999915,None,,,,,,,,,,,,,,,,,,,,,,,,,3,001,2022-09-26_15h56.45.811,test9,2022.1.4,59.99246493791647,
,,,,,,,,1,nBack1Cond.xlsx,111,7,-0.2,-0.2,None,1,27,,,,,,,,,,,,,0,0,0,0,0,26,26,26,,,,,,,,,,,,,,,,,,,,,,,,,,,,,,,,,,,,,,,,,,,,,,,,,,,,,,,,,,,,None,561.6869650000008,None,561.6869650000008,562.7017679000273,562.684871400008,None,561.6869650000008,None,561.6869650000008,None,561.6869650000008,None,561.6869650000008,None,561.6869650000008,None,561.6869650000008,None,561.6869650000008,None,561.6869650000008,None,,,,,,,,,,,,,,,,,,,,,,,,,3,001,2022-09-26_15h56.45.811,test9,2022.1.4,59.99246493791647,
,,,,,,,,1,nBack1Cond.xlsx,111,7,-0.2,-0.2,space,1,28,,,,,,,,,,,,,0,0,0,0,0,27,27,27,,,,,,,,,,,,,,,,,,,,,,,,,,,,,,,,,,,,,,,,,,,,,,,,,,,,,,,,,,,,space,563.6867213000078,None,563.6867213000078,564.7022402000148,564.6848029000103,None,563.6867213000078,None,563.6867213000078,None,563.6867213000078,None,563.6867213000078,None,563.6867213000078,None,563.6867213000078,None,563.6867213000078,None,563.6867213000078,None,0.36651980003807694,,,,,,,,,,,,,,,,,,,,,,,,3,001,2022-09-26_15h56.45.811,test9,2022.1.4,59.99246493791647,
,,,,,,,,1,nBack1Cond.xlsx,111,2,0,0.2,None,1,29,,,,,,,,,,,,,0,0,0,0,0,28,28,28,,,,,,,,,,,,,,,,,,,,,,,,,,,,,,,,,,,,,,,,,,,,,,,,,,,,,,,,,,,,None,565.6865452000056,None,565.6865452000056,566.7022015000111,566.6850910999929,None,565.6865452000056,None,565.6865452000056,None,565.6865452000056,None,565.6865452000056,None,565.6865452000056,None,565.6865452000056,None,565.6865452000056,None,565.6865452000056,None,,,,,,,,,,,,,,,,,,,,,,,,,3,001,2022-09-26_15h56.45.811,test9,2022.1.4,59.99246493791647,
,,,,,,,,1,nBack1Cond.xlsx,111,6,0.2,0,None,1,30,,,,,,,,,,,,,0,0,0,0,0,29,29,29,,,,,,,,,,,,,,,,,,,,,,,,,,,,,,,,,,,,,,,,,,,,,,,,,,,,,,,,,,,,None,567.6890340999817,None,567.6890340999817,568.7021623000037,568.6849537999951,None,567.6890340999817,None,567.6890340999817,None,567.6890340999817,None,567.6890340999817,None,567.6890340999817,None,567.6890340999817,None,567.6890340999817,None,567.6890340999817,None,,,,,,,,,,,,,,,,,,,,,,,,,3,001,2022-09-26_15h56.45.811,test9,2022.1.4,59.99246493791647,
,,,,,,,,1,nBack1Cond.xlsx,111,4,-0.2,0,None,1,31,,,,,,,,,,,,,0,0,0,0,0,30,30,30,,,,,,,,,,,,,,,,,,,,,,,,,,,,,,,,,,,,,,,,,,,,,,,,,,,,,,,,,,,,None,569.6867066000123,None,569.6867066000123,570.7019849999924,570.6848286000313,None,569.6867066000123,None,569.6867066000123,None,569.6867066000123,None,569.6867066000123,None,569.6867066000123,None,569.6867066000123,None,569.6867066000123,None,569.6867066000123,None,,,,,,,,,,,,,,,,,,,,,,,,,3,001,2022-09-26_15h56.45.811,test9,2022.1.4,59.99246493791647,
,,,,,,,,1,nBack1Cond.xlsx,111,4,-0.2,0,space,1,32,,,,,,,,,,,,,0,0,0,0,0,31,31,31,,,,,,,,,,,,,,,,,,,,,,,,,,,,,,,,,,,,,,,,,,,,,,,,,,,,,,,,,,,,space,571.6871613999829,None,571.6871613999829,572.702154700004,572.6850305999978,None,571.6871613999829,None,571.6871613999829,None,571.6871613999829,None,571.6871613999829,None,571.6871613999829,None,571.6871613999829,None,571.6871613999829,None,571.6871613999829,None,0.38973539997823536,,,,,,,,,,,,,,,,,,,,,,,,3,001,2022-09-26_15h56.45.811,test9,2022.1.4,59.99246493791647,
,,,,,,,,1,nBack1Cond.xlsx,111,2,0,0.2,None,1,33,,,,,,,,,,,,,0,0,0,0,0,32,32,32,,,,,,,,,,,,,,,,,,,,,,,,,,,,,,,,,,,,,,,,,,,,,,,,,,,,,,,,,,,,None,573.686581499991,None,573.686581499991,574.7019091999973,574.6848020000034,None,573.686581499991,None,573.686581499991,None,573.686581499991,None,573.686581499991,None,573.686581499991,None,573.686581499991,None,573.686581499991,None,573.686581499991,None,,,,,,,,,,,,,,,,,,,,,,,,,3,001,2022-09-26_15h56.45.811,test9,2022.1.4,59.99246493791647,
,,,,,,,,1,nBack1Cond.xlsx,111,9,0.2,-0.2,None,1,34,,,,,,,,,,,,,0,0,0,0,0,33,33,33,,,,,,,,,,,,,,,,,,,,,,,,,,,,,,,,,,,,,,,,,,,,,,,,,,,,,,,,,,,,None,575.6866550000268,None,575.6866550000268,576.7020890000276,576.6849054999766,None,575.6866550000268,None,575.6866550000268,None,575.6866550000268,None,575.6866550000268,None,575.6866550000268,None,575.6866550000268,None,575.6866550000268,None,575.6866550000268,None,,,,,,,,,,,,,,,,,,,,,,,,,3,001,2022-09-26_15h56.45.811,test9,2022.1.4,59.99246493791647,
,,,,,,,,1,nBack1Cond.xlsx,111,9,0.2,-0.2,space,1,35,,,,,,,,,,,,,0,0,0,0,0,34,34,34,,,,,,,,,,,,,,,,,,,,,,,,,,,,,,,,,,,,,,,,,,,,,,,,,,,,,,,,,,,,space,577.6874146999908,None,577.6874146999908,578.7021584000322,578.6848163999966,None,577.6874146999908,None,577.6874146999908,None,577.6874146999908,None,577.6874146999908,None,577.6874146999908,None,577.6874146999908,None,577.6874146999908,None,577.6874146999908,None,0.33277019998058677,,,,,,,,,,,,,,,,,,,,,,,,3,001,2022-09-26_15h56.45.811,test9,2022.1.4,59.99246493791647,
,,,,,,,,1,nBack1Cond.xlsx,111,3,0.2,0.2,None,1,36,,,,,,,,,,,,,0,0,0,0,0,35,35,35,,,,,,,,,,,,,,,,,,,,,,,,,,,,,,,,,,,,,,,,,,,,,,,,,,,,,,,,,,,,None,579.6881192000001,None,579.6881192000001,580.7018887000158,580.6848100000061,None,579.6881192000001,None,579.6881192000001,None,579.6881192000001,None,579.6881192000001,None,579.6881192000001,None,579.6881192000001,None,579.6881192000001,None,579.6881192000001,None,,,,,,,,,,,,,,,,,,,,,,,,,3,001,2022-09-26_15h56.45.811,test9,2022.1.4,59.99246493791647,
,,,,,,,,1,nBack1Cond.xlsx,111,7,-0.2,-0.2,None,1,37,,,,,,,,,,,,,0,0,0,0,0,36,36,36,,,,,,,,,,,,,,,,,,,,,,,,,,,,,,,,,,,,,,,,,,,,,,,,,,,,,,,,,,,,None,581.6892228000215,None,581.6892228000215,582.7020739000291,582.6848461999907,None,581.6892228000215,None,581.6892228000215,None,581.6892228000215,None,581.6892228000215,None,581.6892228000215,None,581.6892228000215,None,581.6892228000215,None,581.6892228000215,None,,,,,,,,,,,,,,,,,,,,,,,,,3,001,2022-09-26_15h56.45.811,test9,2022.1.4,59.99246493791647,
,,,,,,,,1,nBack1Cond.xlsx,111,7,-0.2,-0.2,space,1,38,,,,,,,,,,,,,0,0,0,0,0,37,37,37,,,,,,,,,,,,,,,,,,,,,,,,,,,,,,,,,,,,,,,,,,,,,,,,,,,,,,,,,,,,space,583.6877070000046,None,583.6877070000046,584.7017408999964,584.6848420000169,None,583.6877070000046,None,583.6877070000046,None,583.6877070000046,None,583.6877070000046,None,583.6877070000046,None,583.6877070000046,None,583.6877070000046,None,583.6877070000046,None,0.5252260999986902,,,,,,,,,,,,,,,,,,,,,,,,3,001,2022-09-26_15h56.45.811,test9,2022.1.4,59.99246493791647,
,,,,,,,,1,nBack1Cond.xlsx,111,7,-0.2,-0.2,space,1,39,,,,,,,,,,,,,0,0,0,0,0,38,38,38,,,,,,,,,,,,,,,,,,,,,,,,,,,,,,,,,,,,,,,,,,,,,,,,,,,,,,,,,,,,space,585.6866140000056,None,585.6866140000056,586.7017819000175,586.6848898000317,None,585.6866140000056,None,585.6866140000056,None,585.6866140000056,None,585.6866140000056,None,585.6866140000056,None,585.6866140000056,None,585.6866140000056,None,585.6866140000056,None,0.5503004000056535,,,,,,,,,,,,,,,,,,,,,,,,3,001,2022-09-26_15h56.45.811,test9,2022.1.4,59.99246493791647,
,,,,,,,,1,nBack1Cond.xlsx,111,6,0.2,0,None,1,40,,,,,,,,,,,,,0,0,0,0,0,39,39,39,,,,,,,,,,,,,,,,,,,,,,,,,,,,,,,,,,,,,,,,,,,,,,,,,,,,,,,,,,,,None,587.6873149999883,None,587.6873149999883,588.702158799977,588.6848201000248,None,587.6873149999883,None,587.6873149999883,None,587.6873149999883,None,587.6873149999883,None,587.6873149999883,None,587.6873149999883,None,587.6873149999883,None,587.6873149999883,None,,,,,,,,,,,,,,,,,,,,,,,,,3,001,2022-09-26_15h56.45.811,test9,2022.1.4,59.99246493791647,
,,,,,,,,1,nBack1Cond.xlsx,111,6,0.2,0,space,1,41,,,,,,,,,,,,,0,0,0,0,0,40,40,40,,,,,,,,,,,,,,,,,,,,,,,,,,,,,,,,,,,,,,,,,,,,,,,,,,,,,,,,,,,,space,589.6872021000017,None,589.6872021000017,590.7019539999892,590.6847535999841,None,589.6872021000017,None,589.6872021000017,None,589.6872021000017,None,589.6872021000017,None,589.6872021000017,None,589.6872021000017,None,589.6872021000017,None,589.6872021000017,None,0.38943470001686364,,,,,,,,,,,,,,,,,,,,,,,,3,001,2022-09-26_15h56.45.811,test9,2022.1.4,59.99246493791647,
,,,,,,,,1,nBack1Cond.xlsx,111,1,-0.2,0.2,None,1,42,,,,,,,,,,,,,0,0,0,0,0,41,41,41,,,,,,,,,,,,,,,,,,,,,,,,,,,,,,,,,,,,,,,,,,,,,,,,,,,,,,,,,,,,None,591.6895241999882,None,591.6895241999882,592.7020156999934,592.6848327000043,None,591.6895241999882,None,591.6895241999882,None,591.6895241999882,None,591.6895241999882,None,591.6895241999882,None,591.6895241999882,None,591.6895241999882,None,591.6895241999882,None,,,,,,,,,,,,,,,,,,,,,,,,,3,001,2022-09-26_15h56.45.811,test9,2022.1.4,59.99246493791647,
,,,,,,,,1,nBack1Cond.xlsx,111,5,0,0,None,1,43,,,,,,,,,,,,,0,0,0,0,0,42,42,42,,,,,,,,,,,,,,,,,,,,,,,,,,,,,,,,,,,,,,,,,,,,,,,,,,,,,,,,,,,,None,593.6883510000189,None,593.6883510000189,594.7023838000023,594.6848418000154,None,593.6883510000189,None,593.6883510000189,None,593.6883510000189,None,593.6883510000189,None,593.6883510000189,None,593.6883510000189,None,593.6883510000189,None,593.6883510000189,None,,,,,,,,,,,,,,,,,,,,,,,,,3,001,2022-09-26_15h56.45.811,test9,2022.1.4,59.99246493791647,
,,,,,,,,1,nBack1Cond.xlsx,111,3,0.2,0.2,None,1,44,,,,,,,,,,,,,0,0,0,0,0,43,43,43,,,,,,,,,,,,,,,,,,,,,,,,,,,,,,,,,,,,,,,,,,,,,,,,,,,,,,,,,,,,None,595.6881837000255,None,595.6881837000255,596.7019060000312,596.6847750000306,None,595.6881837000255,None,595.6881837000255,None,595.6881837000255,None,595.6881837000255,None,595.6881837000255,None,595.6881837000255,None,595.6881837000255,None,595.6881837000255,None,,,,,,,,,,,,,,,,,,,,,,,,,3,001,2022-09-26_15h56.45.811,test9,2022.1.4,59.99246493791647,
,,,,,,,,1,nBack1Cond.xlsx,111,1,-0.2,0.2,None,1,45,,,,,,,,,,,,,0,0,0,0,0,44,44,44,,,,,,,,,,,,,,,,,,,,,,,,,,,,,,,,,,,,,,,,,,,,,,,,,,,,,,,,,,,,None,597.6871966000181,None,597.6871966000181,598.7019250000012,598.6849270000239,None,597.6871966000181,None,597.6871966000181,None,597.6871966000181,None,597.6871966000181,None,597.6871966000181,None,597.6871966000181,None,597.6871966000181,None,597.6871966000181,None,,,,,,,,,,,,,,,,,,,,,,,,,3,001,2022-09-26_15h56.45.811,test9,2022.1.4,59.99246493791647,
,,,,,,,,1,nBack1Cond.xlsx,111,7,-0.2,-0.2,None,1,46,,,,,,,,,,,,,0,0,0,0,0,45,45,45,,,,,,,,,,,,,,,,,,,,,,,,,,,,,,,,,,,,,,,,,,,,,,,,,,,,,,,,,,,,None,599.6732831000118,None,599.6732831000118,600.6853376000072,600.6685164999799,601.6682292000041,599.6732831000118,None,599.6732831000118,None,599.6732831000118,None,599.6732831000118,None,599.6732831000118,None,599.6732831000118,None,599.6732831000118,None,599.6732831000118,None,,,,,,,,,,,,,,,,,,,,,,,,,3,001,2022-09-26_15h56.45.811,test9,2022.1.4,59.99246493791647,
,,,,,,,,1,nBack1Cond.xlsx,111,3,0.2,0.2,None,1,47,,,,,,,,,,,,,0,0,0,0,0,46,46,46,,,,,,,,,,,,,,,,,,,,,,,,,,,,,,,,,,,,,,,,,,,,,,,,,,,,,,,,,,,,None,601.6869294000207,None,601.6869294000207,602.7018395999912,602.6849666999769,None,601.6869294000207,None,601.6869294000207,None,601.6869294000207,None,601.6869294000207,None,601.6869294000207,None,601.6869294000207,None,601.6869294000207,None,601.6869294000207,None,,,,,,,,,,,,,,,,,,,,,,,,,3,001,2022-09-26_15h56.45.811,test9,2022.1.4,59.99246493791647,
,,,,,,,,1,nBack1Cond.xlsx,111,3,0.2,0.2,space,1,48,,,,,,,,,,,,,0,0,0,0,0,47,47,47,,,,,,,,,,,,,,,,,,,,,,,,,,,,,,,,,,,,,,,,,,,,,,,,,,,,,,,,,,,,space,603.6883357000188,None,603.6883357000188,604.7018580000149,604.6849032000173,None,603.6883357000188,None,603.6883357000188,None,603.6883357000188,None,603.6883357000188,None,603.6883357000188,None,603.6883357000188,None,603.6883357000188,None,603.6883357000188,None,0.3722708999994211,,,,,,,,,,,,,,,,,,,,,,,,3,001,2022-09-26_15h56.45.811,test9,2022.1.4,59.99246493791647,
,,,,,,,,1,nBack1Cond.xlsx,111,9,0.2,-0.2,None,1,49,,,,,,,,,,,,,0,0,0,0,0,48,48,48,,,,,,,,,,,,,,,,,,,,,,,,,,,,,,,,,,,,,,,,,,,,,,,,,,,,,,,,,,,,None,605.6896600000327,None,605.6896600000327,606.701944200031,606.6848408000078,None,605.6896600000327,None,605.6896600000327,None,605.6896600000327,None,605.6896600000327,None,605.6896600000327,None,605.6896600000327,None,605.6896600000327,None,605.6896600000327,None,,,,,,,,,,,,,,,,,,,,,,,,,3,001,2022-09-26_15h56.45.811,test9,2022.1.4,59.99246493791647,
,,,,,,,,1,nBack1Cond.xlsx,111,7,-0.2,-0.2,None,1,50,,,,,,,,,,,,,0,0,0,0,0,49,49,49,,,,,,,,,,,,,,,,,,,,,,,,,,,,,,,,,,,,,,,,,,,,,,,,,,,,,,,,,,,,None,607.6866254000342,None,607.6866254000342,608.701831399987,608.6848664000281,None,607.6866254000342,None,607.6866254000342,None,607.6866254000342,None,607.6866254000342,None,607.6866254000342,None,607.6866254000342,None,607.6866254000342,None,607.6866254000342,None,,,,,,,,,,,,,,,,,,,,,,,,,3,001,2022-09-26_15h56.45.811,test9,2022.1.4,59.99246493791647,
,,,,,,,,1,nBack1Cond.xlsx,111,5,0,0,None,1,51,,,,,,,,,,,,,0,0,0,0,0,50,50,50,,,,,,,,,,,,,,,,,,,,,,,,,,,,,,,,,,,,,,,,,,,,,,,,,,,,,,,,,,,,None,609.6888834999991,None,609.6888834999991,610.7016530000255,610.6848869000096,None,609.6888834999991,None,609.6888834999991,None,609.6888834999991,None,609.6888834999991,None,609.6888834999991,None,609.6888834999991,None,609.6888834999991,None,609.6888834999991,None,,,,,,,,,,,,,,,,,,,,,,,,,3,001,2022-09-26_15h56.45.811,test9,2022.1.4,59.99246493791647,
,,,,,,,,1,nBack1Cond.xlsx,111,8,0,-0.2,None,1,52,,,,,,,,,,,,,0,0,0,0,0,51,51,51,,,,,,,,,,,,,,,,,,,,,,,,,,,,,,,,,,,,,,,,,,,,,,,,,,,,,,,,,,,,None,611.686729900015,None,611.686729900015,612.7019747000304,612.6848376999842,None,611.686729900015,None,611.686729900015,None,611.686729900015,None,611.686729900015,None,611.686729900015,None,611.686729900015,None,611.686729900015,None,611.686729900015,None,,,,,,,,,,,,,,,,,,,,,,,,,3,001,2022-09-26_15h56.45.811,test9,2022.1.4,59.99246493791647,
,,,,,,,,1,nBack1Cond.xlsx,111,8,0,-0.2,space,1,53,,,,,,,,,,,,,0,0,0,0,0,52,52,52,,,,,,,,,,,,,,,,,,,,,,,,,,,,,,,,,,,,,,,,,,,,,,,,,,,,,,,,,,,,space,613.6873008999974,None,613.6873008999974,614.7020052000298,614.6849953000201,None,613.6873008999974,None,613.6873008999974,None,613.6873008999974,None,613.6873008999974,None,613.6873008999974,None,613.6873008999974,None,613.6873008999974,None,613.6873008999974,None,0.6382767000468448,,,,,,,,,,,,,,,,,,,,,,,,3,001,2022-09-26_15h56.45.811,test9,2022.1.4,59.99246493791647,
,,,,,,,,1,nBack1Cond.xlsx,111,7,-0.2,-0.2,None,1,54,,,,,,,,,,,,,0,0,0,0,0,53,53,53,,,,,,,,,,,,,,,,,,,,,,,,,,,,,,,,,,,,,,,,,,,,,,,,,,,,,,,,,,,,None,615.689445200027,None,615.689445200027,616.7019659000216,616.6850082000019,None,615.689445200027,None,615.689445200027,None,615.689445200027,None,615.689445200027,None,615.689445200027,None,615.689445200027,None,615.689445200027,None,615.689445200027,None,,,,,,,,,,,,,,,,,,,,,,,,,3,001,2022-09-26_15h56.45.811,test9,2022.1.4,59.99246493791647,
,,,,,,,,1,nBack1Cond.xlsx,111,4,-0.2,0,None,1,55,,,,,,,,,,,,,0,0,0,0,0,54,54,54,,,,,,,,,,,,,,,,,,,,,,,,,,,,,,,,,,,,,,,,,,,,,,,,,,,,,,,,,,,,None,617.688220800017,None,617.688220800017,618.7017803000053,618.684902900015,None,617.688220800017,None,617.688220800017,None,617.688220800017,None,617.688220800017,None,617.688220800017,None,617.688220800017,None,617.688220800017,None,617.688220800017,None,,,,,,,,,,,,,,,,,,,,,,,,,3,001,2022-09-26_15h56.45.811,test9,2022.1.4,59.99246493791647,
,,,,,,,,1,nBack1Cond.xlsx,111,5,0,0,None,1,56,,,,,,,,,,,,,0,0,0,0,0,55,55,55,,,,,,,,,,,,,,,,,,,,,,,,,,,,,,,,,,,,,,,,,,,,,,,,,,,,,,,,,,,,None,619.6871530999779,None,619.6871530999779,620.7019579000189,620.6848643000121,None,619.6871530999779,None,619.6871530999779,None,619.6871530999779,None,619.6871530999779,None,619.6871530999779,None,619.6871530999779,None,619.6871530999779,None,619.6871530999779,None,,,,,,,,,,,,,,,,,,,,,,,,,3,001,2022-09-26_15h56.45.811,test9,2022.1.4,59.99246493791647,
,,,,,,,,1,nBack1Cond.xlsx,111,5,0,0,space,1,57,,,,,,,,,,,,,0,0,0,0,0,56,56,56,,,,,,,,,,,,,,,,,,,,,,,,,,,,,,,,,,,,,,,,,,,,,,,,,,,,,,,,,,,,space,621.6868896000087,None,621.6868896000087,622.7019614999881,622.6850366999861,None,621.6868896000087,None,621.6868896000087,None,621.6868896000087,None,621.6868896000087,None,621.6868896000087,None,621.6868896000087,None,621.6868896000087,None,621.6868896000087,None,0.6856772000319324,,,,,,,,,,,,,,,,,,,,,,,,3,001,2022-09-26_15h56.45.811,test9,2022.1.4,59.99246493791647,
,,,,,,,,1,nBack1Cond.xlsx,111,2,0,0.2,None,1,58,,,,,,,,,,,,,0,0,0,0,0,57,57,57,,,,,,,,,,,,,,,,,,,,,,,,,,,,,,,,,,,,,,,,,,,,,,,,,,,,,,,,,,,,None,623.6870992000331,None,623.6870992000331,624.7019524999778,624.6848985999823,None,623.6870992000331,None,623.6870992000331,None,623.6870992000331,None,623.6870992000331,None,623.6870992000331,None,623.6870992000331,None,623.6870992000331,None,623.6870992000331,None,,,,,,,,,,,,,,,,,,,,,,,,,3,001,2022-09-26_15h56.45.811,test9,2022.1.4,59.99246493791647,
,,,,,,,,1,nBack1Cond.xlsx,111,2,0,0.2,space,1,59,,,,,,,,,,,,,0,0,0,0,0,58,58,58,,,,,,,,,,,,,,,,,,,,,,,,,,,,,,,,,,,,,,,,,,,,,,,,,,,,,,,,,,,,space,625.6884435000247,None,625.6884435000247,626.7019164999947,626.6848131000297,None,625.6884435000247,None,625.6884435000247,None,625.6884435000247,None,625.6884435000247,None,625.6884435000247,None,625.6884435000247,None,625.6884435000247,None,625.6884435000247,None,0.5161029999726452,,,,,,,,,,,,,,,,,,,,,,,,3,001,2022-09-26_15h56.45.811,test9,2022.1.4,59.99246493791647,
,,,,,,,,1,nBack1Cond.xlsx,111,6,0.2,0,None,1,60,,,,,,,,,,,,,0,0,0,0,0,59,59,59,,,,,,,,,,,,,,,,,,,,,,,,,,,,,,,,,,,,,,,,,,,,,,,,,,,,,,,,,,,,None,627.686677700025,None,627.686677700025,628.7018351000152,628.6848481000052,None,627.686677700025,None,627.686677700025,None,627.686677700025,None,627.686677700025,None,627.686677700025,None,627.686677700025,None,627.686677700025,None,627.686677700025,None,,,,,,,,,,,,,,,,,,,,,,,,,3,001,2022-09-26_15h56.45.811,test9,2022.1.4,59.99246493791647,
,,,,,,,,1,nBack1Cond.xlsx,111,2,0,0.2,None,1,61,,,,,,,,,,,,,0,0,0,0,0,60,60,60,,,,,,,,,,,,,,,,,,,,,,,,,,,,,,,,,,,,,,,,,,,,,,,,,,,,,,,,,,,,None,629.6888987999992,None,629.6888987999992,630.7021616999991,630.684848200006,None,629.6888987999992,None,629.6888987999992,None,629.6888987999992,None,629.6888987999992,None,629.6888987999992,None,629.6888987999992,None,629.6888987999992,None,629.6888987999992,None,,,,,,,,,,,,,,,,,,,,,,,,,3,001,2022-09-26_15h56.45.811,test9,2022.1.4,59.99246493791647,
,,,,,,,,1,nBack1Cond.xlsx,111,2,0,0.2,space,1,62,,,,,,,,,,,,,0,0,0,0,0,61,61,61,,,,,,,,,,,,,,,,,,,,,,,,,,,,,,,,,,,,,,,,,,,,,,,,,,,,,,,,,,,,space,631.6869607000262,None,631.6869607000262,632.7024600000004,632.6849082999979,None,631.6869607000262,None,631.6869607000262,None,631.6869607000262,None,631.6869607000262,None,631.6869607000262,None,631.6869607000262,None,631.6869607000262,None,631.6869607000262,None,0.54149299999699,,,,,,,,,,,,,,,,,,,,,,,,3,001,2022-09-26_15h56.45.811,test9,2022.1.4,59.99246493791647,
,,,,,,,,1,nBack1Cond.xlsx,111,5,0,0,None,1,63,,,,,,,,,,,,,0,0,0,0,0,62,62,62,,,,,,,,,,,,,,,,,,,,,,,,,,,,,,,,,,,,,,,,,,,,,,,,,,,,,,,,,,,,None,633.6869997000322,None,633.6869997000322,634.701962799998,634.6849745999789,None,633.6869997000322,None,633.6869997000322,None,633.6869997000322,None,633.6869997000322,None,633.6869997000322,None,633.6869997000322,None,633.6869997000322,None,633.6869997000322,None,,,,,,,,,,,,,,,,,,,,,,,,,3,001,2022-09-26_15h56.45.811,test9,2022.1.4,59.99246493791647,
,,,,,,,,1,nBack1Cond.xlsx,111,5,0,0,space,1,64,,,,,,,,,,,,,0,0,0,0,0,63,63,63,,,,,,,,,,,,,,,,,,,,,,,,,,,,,,,,,,,,,,,,,,,,,,,,,,,,,,,,,,,,space,635.6870234999806,None,635.6870234999806,636.7025726999855,636.6849292999832,None,635.6870234999806,None,635.6870234999806,None,635.6870234999806,None,635.6870234999806,None,635.6870234999806,None,635.6870234999806,None,635.6870234999806,None,635.6870234999806,None,0.6055480999639258,,,,,,,,,,,,,,,,,,,,,,,,3,001,2022-09-26_15h56.45.811,test9,2022.1.4,59.99246493791647,
,,,,,,,,1,nBack1Cond.xlsx,111,4,-0.2,0,None,1,65,,,,,,,,,,,,,0,0,0,0,0,64,64,64,,,,,,,,,,,,,,,,,,,,,,,,,,,,,,,,,,,,,,,,,,,,,,,,,,,,,,,,,,,,None,637.6871283000219,None,637.6871283000219,638.7020533999894,638.6848681999836,None,637.6871283000219,None,637.6871283000219,None,637.6871283000219,None,637.6871283000219,None,637.6871283000219,None,637.6871283000219,None,637.6871283000219,None,637.6871283000219,None,,,,,,,,,,,,,,,,,,,,,,,,,3,001,2022-09-26_15h56.45.811,test9,2022.1.4,59.99246493791647,
,,,,,,,,1,nBack1Cond.xlsx,111,7,-0.2,-0.2,None,1,66,,,,,,,,,,,,,0,0,0,0,0,65,65,65,,,,,,,,,,,,,,,,,,,,,,,,,,,,,,,,,,,,,,,,,,,,,,,,,,,,,,,,,,,,None,639.6868409999879,None,639.6868409999879,640.7018742000218,640.6849217999843,None,639.6868409999879,None,639.6868409999879,None,639.6868409999879,None,639.6868409999879,None,639.6868409999879,None,639.6868409999879,None,639.6868409999879,None,639.6868409999879,None,,,,,,,,,,,,,,,,,,,,,,,,,3,001,2022-09-26_15h56.45.811,test9,2022.1.4,59.99246493791647,
,,,,,,,,1,nBack1Cond.xlsx,111,8,0,-0.2,None,1,67,,,,,,,,,,,,,0,0,0,0,0,66,66,66,,,,,,,,,,,,,,,,,,,,,,,,,,,,,,,,,,,,,,,,,,,,,,,,,,,,,,,,,,,,None,641.6870194000076,None,641.6870194000076,642.7020097000059,642.6849133999785,None,641.6870194000076,None,641.6870194000076,None,641.6870194000076,None,641.6870194000076,None,641.6870194000076,None,641.6870194000076,None,641.6870194000076,None,641.6870194000076,None,,,,,,,,,,,,,,,,,,,,,,,,,3,001,2022-09-26_15h56.45.811,test9,2022.1.4,59.99246493791647,
,,,,,,,,1,nBack1Cond.xlsx,111,8,0,-0.2,space,1,68,,,,,,,,,,,,,0,0,0,0,0,67,67,67,,,,,,,,,,,,,,,,,,,,,,,,,,,,,,,,,,,,,,,,,,,,,,,,,,,,,,,,,,,,space,643.6880775000318,None,643.6880775000318,644.7019017999992,644.6850595999858,None,643.6880775000318,None,643.6880775000318,None,643.6880775000318,None,643.6880775000318,None,643.6880775000318,None,643.6880775000318,None,643.6880775000318,None,643.6880775000318,None,0.3568770000129007,,,,,,,,,,,,,,,,,,,,,,,,3,001,2022-09-26_15h56.45.811,test9,2022.1.4,59.99246493791647,
,,,,,,,,1,nBack1Cond.xlsx,111,5,0,0,None,1,69,,,,,,,,,,,,,0,0,0,0,0,68,68,68,,,,,,,,,,,,,,,,,,,,,,,,,,,,,,,,,,,,,,,,,,,,,,,,,,,,,,,,,,,,None,645.6867732999963,None,645.6867732999963,646.7018938999972,646.6849414000171,None,645.6867732999963,None,645.6867732999963,None,645.6867732999963,None,645.6867732999963,None,645.6867732999963,None,645.6867732999963,None,645.6867732999963,None,645.6867732999963,None,,,,,,,,,,,,,,,,,,,,,,,,,3,001,2022-09-26_15h56.45.811,test9,2022.1.4,59.99246493791647,
,,,,,,,,1,nBack1Cond.xlsx,111,7,-0.2,-0.2,None,1,70,,,,,,,,,,,,,0,0,0,0,0,69,69,69,,,,,,,,,,,,,,,,,,,,,,,,,,,,,,,,,,,,,,,,,,,,,,,,,,,,,,,,,,,,None,647.6869486999931,None,647.6869486999931,648.7020819000318,648.6850393000059,None,647.6869486999931,None,647.6869486999931,None,647.6869486999931,None,647.6869486999931,None,647.6869486999931,None,647.6869486999931,None,647.6869486999931,None,647.6869486999931,None,,,,,,,,,,,,,,,,,,,,,,,,,3,001,2022-09-26_15h56.45.811,test9,2022.1.4,59.99246493791647,
,,,,,,,,1,nBack1Cond.xlsx,111,9,0.2,-0.2,None,1,71,,,,,,,,,,,,,0,0,0,0,0,70,70,70,,,,,,,,,,,,,,,,,,,,,,,,,,,,,,,,,,,,,,,,,,,,,,,,,,,,,,,,,,,,None,649.6870545999845,None,649.6870545999845,650.7020743000321,650.6849758999888,None,649.6870545999845,None,649.6870545999845,None,649.6870545999845,None,649.6870545999845,None,649.6870545999845,None,649.6870545999845,None,649.6870545999845,None,649.6870545999845,None,,,,,,,,,,,,,,,,,,,,,,,,,3,001,2022-09-26_15h56.45.811,test9,2022.1.4,59.99246493791647,
,,,,,,,,1,nBack1Cond.xlsx,111,3,0.2,0.2,None,1,72,,,,,,,,,,,,,0,0,0,0,0,71,71,71,,,,,,,,,,,,,,,,,,,,,,,,,,,,,,,,,,,,,,,,,,,,,,,,,,,,,,,,,,,,None,651.6892955999938,None,651.6892955999938,652.7025777000235,652.6851438999875,None,651.6892955999938,None,651.6892955999938,None,651.6892955999938,None,651.6892955999938,None,651.6892955999938,None,651.6892955999938,None,651.6892955999938,None,651.6892955999938,None,,,,,,,,,,,,,,,,,,,,,,,,,3,001,2022-09-26_15h56.45.811,test9,2022.1.4,59.99246493791647,
,,,,,,,,1,nBack1Cond.xlsx,111,3,0.2,0.2,space,1,73,,,,,,,,,,,,,0,0,0,0,0,72,72,72,,,,,,,,,,,,,,,,,,,,,,,,,,,,,,,,,,,,,,,,,,,,,,,,,,,,,,,,,,,,space,653.6869534000289,None,653.6869534000289,654.7024170000223,654.6849745999789,None,653.6869534000289,None,653.6869534000289,None,653.6869534000289,None,653.6869534000289,None,653.6869534000289,None,653.6869534000289,None,653.6869534000289,None,653.6869534000289,None,0.35737559996778145,,,,,,,,,,,,,,,,,,,,,,,,3,001,2022-09-26_15h56.45.811,test9,2022.1.4,59.99246493791647,
,,,,,,,,1,nBack1Cond.xlsx,111,7,-0.2,-0.2,None,1,74,,,,,,,,,,,,,0,0,0,0,0,73,73,73,,,,,,,,,,,,,,,,,,,,,,,,,,,,,,,,,,,,,,,,,,,,,,,,,,,,,,,,,,,,None,655.6896131000249,None,655.6896131000249,656.7021725000232,656.6850563000189,None,655.6896131000249,None,655.6896131000249,None,655.6896131000249,None,655.6896131000249,None,655.6896131000249,None,655.6896131000249,None,655.6896131000249,None,655.6896131000249,None,,,,,,,,,,,,,,,,,,,,,,,,,3,001,2022-09-26_15h56.45.811,test9,2022.1.4,59.99246493791647,
,,,,,,,,1,nBack1Cond.xlsx,111,1,-0.2,0.2,None,1,75,,,,,,,,,,,,,0,0,0,0,0,74,74,74,,,,,,,,,,,,,,,,,,,,,,,,,,,,,,,,,,,,,,,,,,,,,,,,,,,,,,,,,,,,None,657.6868900000118,None,657.6868900000118,658.702037399984,658.6852426999831,None,657.6868900000118,None,657.6868900000118,None,657.6868900000118,None,657.6868900000118,None,657.6868900000118,None,657.6868900000118,None,657.6868900000118,None,657.6868900000118,None,,,,,,,,,,,,,,,,,,,,,,,,,3,001,2022-09-26_15h56.45.811,test9,2022.1.4,59.99246493791647,
,,,,,,,,1,nBack1Cond.xlsx,111,3,0.2,0.2,None,1,76,,,,,,,,,,,,,0,0,0,0,0,75,75,75,,,,,,,,,,,,,,,,,,,,,,,,,,,,,,,,,,,,,,,,,,,,,,,,,,,,,,,,,,,,None,659.6878985000076,None,659.6878985000076,660.7019703999977,660.6849844999961,None,659.6878985000076,None,659.6878985000076,None,659.6878985000076,None,659.6878985000076,None,659.6878985000076,None,659.6878985000076,None,659.6878985000076,None,659.6878985000076,None,,,,,,,,,,,,,,,,,,,,,,,,,3,001,2022-09-26_15h56.45.811,test9,2022.1.4,59.99246493791647,
,,,,,,,,1,nBack1Cond.xlsx,111,5,0,0,None,1,77,,,,,,,,,,,,,0,0,0,0,0,76,76,76,,,,,,,,,,,,,,,,,,,,,,,,,,,,,,,,,,,,,,,,,,,,,,,,,,,,,,,,,,,,None,661.6884301999817,None,661.6884301999817,662.7021785000106,662.684987900022,None,661.6884301999817,None,661.6884301999817,None,661.6884301999817,None,661.6884301999817,None,661.6884301999817,None,661.6884301999817,None,661.6884301999817,None,661.6884301999817,None,,,,,,,,,,,,,,,,,,,,,,,,,3,001,2022-09-26_15h56.45.811,test9,2022.1.4,59.99246493791647,
,,,,,,,,1,nBack1Cond.xlsx,111,1,-0.2,0.2,None,1,78,,,,,,,,,,,,,0,0,0,0,0,77,77,77,,,,,,,,,,,,,,,,,,,,,,,,,,,,,,,,,,,,,,,,,,,,,,,,,,,,,,,,,,,,None,663.68687710003,None,663.68687710003,664.7021954000229,664.6850798000232,None,663.68687710003,None,663.68687710003,None,663.68687710003,None,663.68687710003,None,663.68687710003,None,663.68687710003,None,663.68687710003,None,663.68687710003,None,,,,,,,,,,,,,,,,,,,,,,,,,3,001,2022-09-26_15h56.45.811,test9,2022.1.4,59.99246493791647,
,,,,,,,,1,nBack1Cond.xlsx,111,6,0.2,0,None,1,79,,,,,,,,,,,,,0,0,0,0,0,78,78,78,,,,,,,,,,,,,,,,,,,,,,,,,,,,,,,,,,,,,,,,,,,,,,,,,,,,,,,,,,,,None,665.6880158000276,None,665.6880158000276,666.7019138000323,666.6850333000184,None,665.6880158000276,None,665.6880158000276,None,665.6880158000276,None,665.6880158000276,None,665.6880158000276,None,665.6880158000276,None,665.6880158000276,None,665.6880158000276,None,,,,,,,,,,,,,,,,,,,,,,,,,3,001,2022-09-26_15h56.45.811,test9,2022.1.4,59.99246493791647,
,,,,,,,,1,nBack1Cond.xlsx,111,6,0.2,0,space,1,80,,,,,,,,,,,,,0,0,0,0,0,79,79,79,,,,,,,,,,,,,,,,,,,,,,,,,,,,,,,,,,,,,,,,,,,,,,,,,,,,,,,,,,,,space,667.6868337999913,None,667.6868337999913,668.7020798000158,668.6850042000297,None,667.6868337999913,None,667.6868337999913,None,667.6868337999913,None,667.6868337999913,None,667.6868337999913,None,667.6868337999913,None,667.6868337999913,None,667.6868337999913,None,0.6229771000216715,,,,,,,,,,,,,,,,,,,,,,,,3,001,2022-09-26_15h56.45.811,test9,2022.1.4,59.99246493791647,
,,,,,,,,1,nBack1Cond.xlsx,111,7,-0.2,-0.2,None,1,81,,,,,,,,,,,,,0,0,0,0,0,80,80,80,,,,,,,,,,,,,,,,,,,,,,,,,,,,,,,,,,,,,,,,,,,,,,,,,,,,,,,,,,,,None,669.6881915000267,None,669.6881915000267,670.7020102000097,670.685111400031,None,669.6881915000267,None,669.6881915000267,None,669.6881915000267,None,669.6881915000267,None,669.6881915000267,None,669.6881915000267,None,669.6881915000267,None,669.6881915000267,None,,,,,,,,,,,,,,,,,,,,,,,,,3,001,2022-09-26_15h56.45.811,test9,2022.1.4,59.99246493791647,
,,,,,,,,1,nBack1Cond.xlsx,111,7,-0.2,-0.2,space,1,82,,,,,,,,,,,,,0,0,0,0,0,81,81,81,,,,,,,,,,,,,,,,,,,,,,,,,,,,,,,,,,,,,,,,,,,,,,,,,,,,,,,,,,,,space,671.687101699994,None,671.687101699994,672.7019571000128,672.6850969999796,None,671.687101699994,None,671.687101699994,None,671.687101699994,None,671.687101699994,None,671.687101699994,None,671.687101699994,None,671.687101699994,None,671.687101699994,None,0.39770089997909963,,,,,,,,,,,,,,,,,,,,,,,,3,001,2022-09-26_15h56.45.811,test9,2022.1.4,59.99246493791647,
,,,,,,,,1,nBack1Cond.xlsx,111,7,-0.2,-0.2,space,1,83,,,,,,,,,,,,,0,0,0,0,0,82,82,82,,,,,,,,,,,,,,,,,,,,,,,,,,,,,,,,,,,,,,,,,,,,,,,,,,,,,,,,,,,,None,673.6896177000017,None,673.6896177000017,674.7020322000026,674.6849900999805,None,673.6896177000017,None,673.6896177000017,None,673.6896177000017,None,673.6896177000017,None,673.6896177000017,None,673.6896177000017,None,673.6896177000017,None,673.6896177000017,None,,,,,,,,,,,,,,,,,,,,,,,,,3,001,2022-09-26_15h56.45.811,test9,2022.1.4,59.99246493791647,
,,,,,,,,1,nBack1Cond.xlsx,111,3,0.2,0.2,None,1,84,,,,,,,,,,,,,0,0,0,0,0,83,83,83,,,,,,,,,,,,,,,,,,,,,,,,,,,,,,,,,,,,,,,,,,,,,,,,,,,,,,,,,,,,None,675.6896193000139,None,675.6896193000139,676.7020194000215,676.6850631000125,None,675.6896193000139,None,675.6896193000139,None,675.6896193000139,None,675.6896193000139,None,675.6896193000139,None,675.6896193000139,None,675.6896193000139,None,675.6896193000139,None,,,,,,,,,,,,,,,,,,,,,,,,,3,001,2022-09-26_15h56.45.811,test9,2022.1.4,59.99246493791647,
,,,,,,,,1,nBack1Cond.xlsx,111,9,0.2,-0.2,None,1,85,,,,,,,,,,,,,0,0,0,0,0,84,84,84,,,,,,,,,,,,,,,,,,,,,,,,,,,,,,,,,,,,,,,,,,,,,,,,,,,,,,,,,,,,None,677.6873004999943,None,677.6873004999943,678.7019611999858,678.6850708000129,None,677.6873004999943,None,677.6873004999943,None,677.6873004999943,None,677.6873004999943,None,677.6873004999943,None,677.6873004999943,None,677.6873004999943,None,677.6873004999943,None,,,,,,,,,,,,,,,,,,,,,,,,,3,001,2022-09-26_15h56.45.811,test9,2022.1.4,59.99246493791647,
,,,,,,,,1,nBack1Cond.xlsx,111,9,0.2,-0.2,space,1,86,,,,,,,,,,,,,0,0,0,0,0,85,85,85,,,,,,,,,,,,,,,,,,,,,,,,,,,,,,,,,,,,,,,,,,,,,,,,,,,,,,,,,,,,space,679.6894952000002,None,679.6894952000002,680.702427399985,680.6849617999978,None,679.6894952000002,None,679.6894952000002,None,679.6894952000002,None,679.6894952000002,None,679.6894952000002,None,679.6894952000002,None,679.6894952000002,None,679.6894952000002,None,0.3866538999718614,,,,,,,,,,,,,,,,,,,,,,,,3,001,2022-09-26_15h56.45.811,test9,2022.1.4,59.99246493791647,
,,,,,,,,1,nBack1Cond.xlsx,111,2,0,0.2,None,1,87,,,,,,,,,,,,,0,0,0,0,0,86,86,86,,,,,,,,,,,,,,,,,,,,,,,,,,,,,,,,,,,,,,,,,,,,,,,,,,,,,,,,,,,,None,681.6724173999974,None,681.6724173999974,682.6850336000207,682.6684155000257,683.6685371000203,681.6724173999974,None,681.6724173999974,None,681.6724173999974,None,681.6724173999974,None,681.6724173999974,None,681.6724173999974,None,681.6724173999974,None,681.6724173999974,None,,,,,,,,,,,,,,,,,,,,,,,,,3,001,2022-09-26_15h56.45.811,test9,2022.1.4,59.99246493791647,
,,,,,,,,1,nBack1Cond.xlsx,111,4,-0.2,0,None,1,88,,,,,,,,,,,,,0,0,0,0,0,87,87,87,,,,,,,,,,,,,,,,,,,,,,,,,,,,,,,,,,,,,,,,,,,,,,,,,,,,,,,,,,,,None,683.6894387999782,None,683.6894387999782,684.7022345000296,684.6850400000112,None,683.6894387999782,None,683.6894387999782,None,683.6894387999782,None,683.6894387999782,None,683.6894387999782,None,683.6894387999782,None,683.6894387999782,None,683.6894387999782,None,,,,,,,,,,,,,,,,,,,,,,,,,3,001,2022-09-26_15h56.45.811,test9,2022.1.4,59.99246493791647,
,,,,,,,,1,nBack1Cond.xlsx,111,4,-0.2,0,space,1,89,,,,,,,,,,,,,0,0,0,0,0,88,88,88,,,,,,,,,,,,,,,,,,,,,,,,,,,,,,,,,,,,,,,,,,,,,,,,,,,,,,,,,,,,space,685.6892888000002,None,685.6892888000002,686.702148100012,686.6851579999784,None,685.6892888000002,None,685.6892888000002,None,685.6892888000002,None,685.6892888000002,None,685.6892888000002,None,685.6892888000002,None,685.6892888000002,None,685.6892888000002,None,0.5234880999778397,,,,,,,,,,,,,,,,,,,,,,,,3,001,2022-09-26_15h56.45.811,test9,2022.1.4,59.99246493791647,
,,,,,,,,1,nBack1Cond.xlsx,111,6,0.2,0,None,1,90,,,,,,,,,,,,,0,0,0,0,0,89,89,89,,,,,,,,,,,,,,,,,,,,,,,,,,,,,,,,,,,,,,,,,,,,,,,,,,,,,,,,,,,,None,687.6874080999987,None,687.6874080999987,688.7020968000288,688.6851550000138,None,687.6874080999987,None,687.6874080999987,None,687.6874080999987,None,687.6874080999987,None,687.6874080999987,None,687.6874080999987,None,687.6874080999987,None,687.6874080999987,None,,,,,,,,,,,,,,,,,,,,,,,,,3,001,2022-09-26_15h56.45.811,test9,2022.1.4,59.99246493791647,
,,,,,,,,1,nBack1Cond.xlsx,111,2,0,0.2,None,1,91,,,,,,,,,,,,,0,0,0,0,0,90,90,90,,,,,,,,,,,,,,,,,,,,,,,,,,,,,,,,,,,,,,,,,,,,,,,,,,,,,,,,,,,,None,689.6869033999974,None,689.6869033999974,690.7022540000034,690.6853288999991,None,689.6869033999974,None,689.6869033999974,None,689.6869033999974,None,689.6869033999974,None,689.6869033999974,None,689.6869033999974,None,689.6869033999974,None,689.6869033999974,None,,,,,,,,,,,,,,,,,,,,,,,,,3,001,2022-09-26_15h56.45.811,test9,2022.1.4,59.99246493791647,
,,,,,,,,1,nBack1Cond.xlsx,111,7,-0.2,-0.2,None,1,92,,,,,,,,,,,,,0,0,0,0,0,91,91,91,,,,,,,,,,,,,,,,,,,,,,,,,,,,,,,,,,,,,,,,,,,,,,,,,,,,,,,,,,,,None,691.6892317000311,None,691.6892317000311,692.7020125000272,692.6849844999961,None,691.6892317000311,None,691.6892317000311,None,691.6892317000311,None,691.6892317000311,None,691.6892317000311,None,691.6892317000311,None,691.6892317000311,None,691.6892317000311,None,,,,,,,,,,,,,,,,,,,,,,,,,3,001,2022-09-26_15h56.45.811,test9,2022.1.4,59.99246493791647,
,,,,,,,,1,nBack1Cond.xlsx,111,7,-0.2,-0.2,space,1,93,,,,,,,,,,,,,0,0,0,0,0,92,92,92,,,,,,,,,,,,,,,,,,,,,,,,,,,,,,,,,,,,,,,,,,,,,,,,,,,,,,,,,,,,space,693.687003900006,None,693.687003900006,694.7024033000343,694.6850921000005,None,693.687003900006,None,693.687003900006,None,693.687003900006,None,693.687003900006,None,693.687003900006,None,693.687003900006,None,693.687003900006,None,693.687003900006,None,0.5734751000418328,,,,,,,,,,,,,,,,,,,,,,,,3,001,2022-09-26_15h56.45.811,test9,2022.1.4,59.99246493791647,
,,,,,,,,1,nBack1Cond.xlsx,111,1,-0.2,0.2,None,1,94,,,,,,,,,,,,,0,0,0,0,0,93,93,93,,,,,,,,,,,,,,,,,,,,,,,,,,,,,,,,,,,,,,,,,,,,,,,,,,,,,,,,,,,,None,695.6874129999778,None,695.6874129999778,696.7024732999853,696.6850721000228,None,695.6874129999778,None,695.6874129999778,None,695.6874129999778,None,695.6874129999778,None,695.6874129999778,None,695.6874129999778,None,695.6874129999778,None,695.6874129999778,None,,,,,,,,,,,,,,,,,,,,,,,,,3,001,2022-09-26_15h56.45.811,test9,2022.1.4,59.99246493791647,
,,,,,,,,1,nBack1Cond.xlsx,111,2,0,0.2,None,1,95,,,,,,,,,,,,,0,0,0,0,0,94,94,94,,,,,,,,,,,,,,,,,,,,,,,,,,,,,,,,,,,,,,,,,,,,,,,,,,,,,,,,,,,,None,697.6874636000139,None,697.6874636000139,698.7020843999926,698.6851057999884,None,697.6874636000139,None,697.6874636000139,None,697.6874636000139,None,697.6874636000139,None,697.6874636000139,None,697.6874636000139,None,697.6874636000139,None,697.6874636000139,None,,,,,,,,,,,,,,,,,,,,,,,,,3,001,2022-09-26_15h56.45.811,test9,2022.1.4,59.99246493791647,
,,,,,,,,1,nBack1Cond.xlsx,111,3,0.2,0.2,None,1,96,,,,,,,,,,,,,0,0,0,0,0,95,95,95,,,,,,,,,,,,,,,,,,,,,,,,,,,,,,,,,,,,,,,,,,,,,,,,,,,,,,,,,,,,None,699.6868603000185,None,699.6868603000185,700.7022362999851,700.6850806000293,None,699.6868603000185,None,699.6868603000185,None,699.6868603000185,None,699.6868603000185,None,699.6868603000185,None,699.6868603000185,None,699.6868603000185,None,699.6868603000185,None,,,,,,,,,,,,,,,,,,,,,,,,,3,001,2022-09-26_15h56.45.811,test9,2022.1.4,59.99246493791647,
,,,,,,,,1,nBack1Cond.xlsx,111,1,-0.2,0.2,None,1,97,,,,,,,,,,,,,0,0,0,0,0,96,96,96,,,,,,,,,,,,,,,,,,,,,,,,,,,,,,,,,,,,,,,,,,,,,,,,,,,,,,,,,,,,None,701.6890118999872,None,701.6890118999872,702.7019927999936,702.6851078000036,None,701.6890118999872,None,701.6890118999872,None,701.6890118999872,None,701.6890118999872,None,701.6890118999872,None,701.6890118999872,None,701.6890118999872,None,701.6890118999872,None,,,,,,,,,,,,,,,,,,,,,,,,,3,001,2022-09-26_15h56.45.811,test9,2022.1.4,59.99246493791647,
,,,,,,,,1,nBack1Cond.xlsx,111,1,-0.2,0.2,space,1,98,,,,,,,,,,,,,0,0,0,0,0,97,97,97,,,,,,,,,,,,,,,,,,,,,,,,,,,,,,,,,,,,,,,,,,,,,,,,,,,,,,,,,,,,space,703.6736069000326,None,703.6736069000326,704.6851040000329,704.6685485999915,705.6687411000021,703.6736069000326,None,703.6736069000326,None,703.6736069000326,None,703.6736069000326,None,703.6736069000326,None,703.6736069000326,None,703.6736069000326,None,703.6736069000326,None,0.4202098000096157,,,,,,,,,,,,,,,,,,,,,,,,3,001,2022-09-26_15h56.45.811,test9,2022.1.4,59.99246493791647,
,,,,,,,,1,nBack1Cond.xlsx,111,1,-0.2,0.2,space,1,99,,,,,,,,,,,,,0,0,0,0,0,98,98,98,,,,,,,,,,,,,,,,,,,,,,,,,,,,,,,,,,,,,,,,,,,,,,,,,,,,,,,,,,,,None,705.6882493000012,None,705.6882493000012,706.7021697000018,706.6852741999901,None,705.6882493000012,None,705.6882493000012,None,705.6882493000012,None,705.6882493000012,None,705.6882493000012,None,705.6882493000012,None,705.6882493000012,None,705.6882493000012,None,,,,,,,,,,,,,,,,,,,,,,,,,3,001,2022-09-26_15h56.45.811,test9,2022.1.4,59.99246493791647,
,,,,,,,,1,nBack1Cond.xlsx,111,6,0.2,0,None,1,100,,,,,,,,,,,,,0,0,0,0,0,99,99,99,,,,,,,,,,,,,,,,,,,,,,,,,,,,,,,,,,,,,,,,,,,,,,,,,,,,,,,,,,,,None,707.6876210999908,None,707.6876210999908,708.7020675999811,708.6851092000143,None,707.6876210999908,None,707.6876210999908,None,707.6876210999908,None,707.6876210999908,None,707.6876210999908,None,707.6876210999908,None,707.6876210999908,None,707.6876210999908,None,,,,,,,,,,,,,,,,,,,,,,,,,3,001,2022-09-26_15h56.45.811,test9,2022.1.4,59.99246493791647,
,,,,,,,,1,nBack1Cond.xlsx,111,3,0.2,0.2,None,1,101,,,,,,,,,,,,,0,0,0,0,0,100,100,100,,,,,,,,,,,,,,,,,,,,,,,,,,,,,,,,,,,,,,,,,,,,,,,,,,,,,,,,,,,,None,709.6892227000208,None,709.6892227000208,710.702325500024,710.6850962000317,None,709.6892227000208,None,709.6892227000208,None,709.6892227000208,None,709.6892227000208,None,709.6892227000208,None,709.6892227000208,None,709.6892227000208,None,709.6892227000208,None,,,,,,,,,,,,,,,,,,,,,,,,,3,001,2022-09-26_15h56.45.811,test9,2022.1.4,59.99246493791647,
,,,,,,,,1,nBack1Cond.xlsx,111,1,-0.2,0.2,None,1,102,,,,,,,,,,,,,0,0,0,0,0,101,101,101,,,,,,,,,,,,,,,,,,,,,,,,,,,,,,,,,,,,,,,,,,,,,,,,,,,,,,,,,,,,None,711.6728599999915,None,711.6728599999915,712.6850532999961,712.6686215000227,713.6687727000099,711.6728599999915,None,711.6728599999915,None,711.6728599999915,None,711.6728599999915,None,711.6728599999915,None,711.6728599999915,None,711.6728599999915,None,711.6728599999915,None,,,,,,,,,,,,,,,,,,,,,,,,,3,001,2022-09-26_15h56.45.811,test9,2022.1.4,59.99246493791647,
,,,,,,,,1,nBack1Cond.xlsx,111,5,0,0,None,1,103,,,,,,,,,,,,,0,0,0,0,0,102,102,102,,,,,,,,,,,,,,,,,,,,,,,,,,,,,,,,,,,,,,,,,,,,,,,,,,,,,,,,,,,,None,713.6879440000048,None,713.6879440000048,714.7020987999858,714.6850380999967,None,713.6879440000048,None,713.6879440000048,None,713.6879440000048,None,713.6879440000048,None,713.6879440000048,None,713.6879440000048,None,713.6879440000048,None,713.6879440000048,None,,,,,,,,,,,,,,,,,,,,,,,,,3,001,2022-09-26_15h56.45.811,test9,2022.1.4,59.99246493791647,
,,,,,,,,1,nBack1Cond.xlsx,111,5,0,0,space,1,104,,,,,,,,,,,,,0,0,0,0,0,103,103,103,,,,,,,,,,,,,,,,,,,,,,,,,,,,,,,,,,,,,,,,,,,,,,,,,,,,,,,,,,,,space,715.6869551999844,None,715.6869551999844,716.7021748999832,716.6850741999806,None,715.6869551999844,None,715.6869551999844,None,715.6869551999844,None,715.6869551999844,None,715.6869551999844,None,715.6869551999844,None,715.6869551999844,None,715.6869551999844,None,0.6786502999602817,,,,,,,,,,,,,,,,,,,,,,,,3,001,2022-09-26_15h56.45.811,test9,2022.1.4,59.99246493791647,
,,,,,,,,1,nBack1Cond.xlsx,111,8,0,-0.2,None,1,105,,,,,,,,,,,,,0,0,0,0,0,104,104,104,,,,,,,,,,,,,,,,,,,,,,,,,,,,,,,,,,,,,,,,,,,,,,,,,,,,,,,,,,,,None,717.6870295000263,None,717.6870295000263,718.7022021000157,718.685150699981,None,717.6870295000263,None,717.6870295000263,None,717.6870295000263,None,717.6870295000263,None,717.6870295000263,None,717.6870295000263,None,717.6870295000263,None,717.6870295000263,None,,,,,,,,,,,,,,,,,,,,,,,,,3,001,2022-09-26_15h56.45.811,test9,2022.1.4,59.99246493791647,
,,,,,,,,1,nBack1Cond.xlsx,111,4,-0.2,0,None,1,106,,,,,,,,,,,,,0,0,0,0,0,105,105,105,,,,,,,,,,,,,,,,,,,,,,,,,,,,,,,,,,,,,,,,,,,,,,,,,,,,,,,,,,,,None,719.6894530000282,None,719.6894530000282,720.7023162000114,720.6851075000013,None,719.6894530000282,None,719.6894530000282,None,719.6894530000282,None,719.6894530000282,None,719.6894530000282,None,719.6894530000282,None,719.6894530000282,None,719.6894530000282,None,,,,,,,,,,,,,,,,,,,,,,,,,3,001,2022-09-26_15h56.45.811,test9,2022.1.4,59.99246493791647,
,,,,,,,,1,nBack1Cond.xlsx,111,4,-0.2,0,space,1,107,,,,,,,,,,,,,0,0,0,0,0,106,106,106,,,,,,,,,,,,,,,,,,,,,,,,,,,,,,,,,,,,,,,,,,,,,,,,,,,,,,,,,,,,space,721.6901358999894,None,721.6901358999894,722.7020213999785,722.685108900012,None,721.6901358999894,None,721.6901358999894,None,721.6901358999894,None,721.6901358999894,None,721.6901358999894,None,721.6901358999894,None,721.6901358999894,None,721.6901358999894,None,0.3947389000095427,,,,,,,,,,,,,,,,,,,,,,,,3,001,2022-09-26_15h56.45.811,test9,2022.1.4,59.99246493791647,
,,,,,,,,1,nBack1Cond.xlsx,111,2,0,0.2,None,1,108,,,,,,,,,,,,,0,0,0,0,0,107,107,107,,,,,,,,,,,,,,,,,,,,,,,,,,,,,,,,,,,,,,,,,,,,,,,,,,,,,,,,,,,,None,723.6761652000132,None,723.6761652000132,724.6851096000173,724.6685468999785,725.6687472999911,723.6761652000132,None,723.6761652000132,None,723.6761652000132,None,723.6761652000132,None,723.6761652000132,None,723.6761652000132,None,723.6761652000132,None,723.6761652000132,None,,,,,,,,,,,,,,,,,,,,,,,,,3,001,2022-09-26_15h56.45.811,test9,2022.1.4,59.99246493791647,
,,,,,,,,1,nBack1Cond.xlsx,111,1,-0.2,0.2,None,1,109,,,,,,,,,,,,,0,0,0,0,0,108,108,108,,,,,,,,,,,,,,,,,,,,,,,,,,,,,,,,,,,,,,,,,,,,,,,,,,,,,,,,,,,,None,725.6869846000336,None,725.6869846000336,726.6860728000174,726.6860728000174,None,725.6869846000336,None,725.6869846000336,None,725.6869846000336,None,725.6869846000336,None,725.6869846000336,None,725.6869846000336,None,725.6869846000336,None,725.6869846000336,None,,,,,,,,,,,,,,,,,,,,,,,,,3,001,2022-09-26_15h56.45.811,test9,2022.1.4,59.99246493791647,
,,,,,,,,1,nBack1Cond.xlsx,111,8,0,-0.2,None,1,110,,,,,,,,,,,,,0,0,0,0,0,109,109,109,,,,,,,,,,,,,,,,,,,,,,,,,,,,,,,,,,,,,,,,,,,,,,,,,,,,,,,,,,,,None,727.6740877000266,None,727.6740877000266,728.6853259999771,728.6689261000138,None,727.6740877000266,None,727.6740877000266,None,727.6740877000266,None,727.6740877000266,None,727.6740877000266,None,727.6740877000266,None,727.6740877000266,None,727.6740877000266,None,,,,,,,,,,,,,,,,,,,,,,,,,3,001,2022-09-26_15h56.45.811,test9,2022.1.4,59.99246493791647,
,,,,,,,,1,nBack1Cond.xlsx,111,3,0.2,0.2,None,1,111,,,,,,,,,,,,,0,0,0,0,0,110,110,110,,,,,,,,,,,,,,,,,,,,,,,,,,,,,,,,,,,,,,,,,,,,,,,,,,,,,,,,,,,,None,729.6726276000263,None,729.6726276000263,730.6853399000247,730.6689259000123,None,729.6726276000263,None,729.6726276000263,None,729.6726276000263,None,729.6726276000263,None,729.6726276000263,None,729.6726276000263,None,729.6726276000263,None,729.6726276000263,None,,,,,,,,,,,,,,,,,,,,,,,,,3,001,2022-09-26_15h56.45.811,test9,2022.1.4,59.99246493791647,
,,,,,,,,1,nBack1Cond.xlsx,111,3,0.2,0.2,space,1,112,,,,,,,,,,,,,0,0,0,0,0,111,111,111,,,,,,,,,,,,,,,,,,,,,,,,,,,,,,,,,,,,,,,,,,,,,,,,,,,,,,,,,,,,space,731.6743254000321,None,731.6743254000321,732.6853857000242,732.6689119000221,733.6690438999794,731.6743254000321,None,731.6743254000321,None,731.6743254000321,None,731.6743254000321,None,731.6743254000321,None,731.6743254000321,None,731.6743254000321,None,731.6743254000321,None,0.3624825999722816,,,,,,,,,,,,,,,,,,,,,,,,3,001,2022-09-26_15h56.45.811,test9,2022.1.4,59.99246493791647,
,,,,,,,,1,nBack1Cond.xlsx,111,4,-0.2,0,None,1,113,,,,,,,,,,,,,0,0,0,0,0,112,112,112,,,,,,,,,,,,,,,,,,,,,,,,,,,,,,,,,,,,,,,,,,,,,,,,,,,,,,,,,,,,None,733.6903552000294,None,733.6903552000294,734.7022325000144,734.685250599985,None,733.6903552000294,None,733.6903552000294,None,733.6903552000294,None,733.6903552000294,None,733.6903552000294,None,733.6903552000294,None,733.6903552000294,None,733.6903552000294,None,,,,,,,,,,,,,,,,,,,,,,,,,3,001,2022-09-26_15h56.45.811,test9,2022.1.4,59.99246493791647,
,,,,,,,,1,nBack1Cond.xlsx,111,6,0.2,0,None,1,114,,,,,,,,,,,,,0,0,0,0,0,113,113,113,,,,,,,,,,,,,,,,,,,,,,,,,,,,,,,,,,,,,,,,,,,,,,,,,,,,,,,,,,,,None,735.6903299000114,None,735.6903299000114,736.7021230999962,736.6851590999868,None,735.6903299000114,None,735.6903299000114,None,735.6903299000114,None,735.6903299000114,None,735.6903299000114,None,735.6903299000114,None,735.6903299000114,None,735.6903299000114,None,,,,,,,,,,,,,,,,,,,,,,,,,3,001,2022-09-26_15h56.45.811,test9,2022.1.4,59.99246493791647,
,,,,,,,,1,nBack1Cond.xlsx,111,9,0.2,-0.2,None,1,115,,,,,,,,,,,,,0,0,0,0,0,114,114,114,,,,,,,,,,,,,,,,,,,,,,,,,,,,,,,,,,,,,,,,,,,,,,,,,,,,,,,,,,,,None,737.6872343000141,None,737.6872343000141,738.7026949999854,738.6850845000008,None,737.6872343000141,None,737.6872343000141,None,737.6872343000141,None,737.6872343000141,None,737.6872343000141,None,737.6872343000141,None,737.6872343000141,None,737.6872343000141,None,,,,,,,,,,,,,,,,,,,,,,,,,3,001,2022-09-26_15h56.45.811,test9,2022.1.4,59.99246493791647,
,,,,,,,,1,nBack1Cond.xlsx,111,9,0.2,-0.2,space,1,116,,,,,,,,,,,,,0,0,0,0,0,115,115,115,,,,,,,,,,,,,,,,,,,,,,,,,,,,,,,,,,,,,,,,,,,,,,,,,,,,,,,,,,,,space,739.687487600022,None,739.687487600022,740.7027461000253,740.6853335000342,None,739.687487600022,None,739.687487600022,None,739.687487600022,None,739.687487600022,None,739.687487600022,None,739.687487600022,None,739.687487600022,None,739.687487600022,None,0.47685650002676994,,,,,,,,,,,,,,,,,,,,,,,,3,001,2022-09-26_15h56.45.811,test9,2022.1.4,59.99246493791647,
,,,,,,,,1,nBack1Cond.xlsx,111,2,0,0.2,None,1,117,,,,,,,,,,,,,0,0,0,0,0,116,116,116,,,,,,,,,,,,,,,,,,,,,,,,,,,,,,,,,,,,,,,,,,,,,,,,,,,,,,,,,,,,None,741.6874620000017,None,741.6874620000017,742.7022465000045,742.6851435999852,None,741.6874620000017,None,741.6874620000017,None,741.6874620000017,None,741.6874620000017,None,741.6874620000017,None,741.6874620000017,None,741.6874620000017,None,741.6874620000017,None,,,,,,,,,,,,,,,,,,,,,,,,,3,001,2022-09-26_15h56.45.811,test9,2022.1.4,59.99246493791647,
,,,,,,,,1,nBack1Cond.xlsx,111,6,0.2,0,None,1,118,,,,,,,,,,,,,0,0,0,0,0,117,117,117,,,,,,,,,,,,,,,,,,,,,,,,,,,,,,,,,,,,,,,,,,,,,,,,,,,,,,,,,,,,None,743.6873573000194,None,743.6873573000194,744.7020905999816,744.6853196999873,None,743.6873573000194,None,743.6873573000194,None,743.6873573000194,None,743.6873573000194,None,743.6873573000194,None,743.6873573000194,None,743.6873573000194,None,743.6873573000194,None,,,,,,,,,,,,,,,,,,,,,,,,,3,001,2022-09-26_15h56.45.811,test9,2022.1.4,59.99246493791647,
,,,,,,,,1,nBack1Cond.xlsx,111,6,0.2,0,space,1,119,,,,,,,,,,,,,0,0,0,0,0,118,118,118,,,,,,,,,,,,,,,,,,,,,,,,,,,,,,,,,,,,,,,,,,,,,,,,,,,,,,,,,,,,space,745.6884533999837,None,745.6884533999837,746.7024160000146,746.6851733999792,None,745.6884533999837,None,745.6884533999837,None,745.6884533999837,None,745.6884533999837,None,745.6884533999837,None,745.6884533999837,None,745.6884533999837,None,745.6884533999837,None,0.3651536999968812,,,,,,,,,,,,,,,,,,,,,,,,3,001,2022-09-26_15h56.45.811,test9,2022.1.4,59.99246493791647,
,,,,,,,,1,nBack1Cond.xlsx,111,,,,,,,,,,,,,,,,,,,0,0,0,0,,,,,,,,,,,,,,,,,,,,,,,,,,,,,,,,,,,,,,,,,,,,,,,,,,,,,,,,,,,,,,,,,,,,,,,,,,,,,,,,,,,,,,,,,,,,,,,,,,,,,,,,,,,,,,,3,001,2022-09-26_15h56.45.811,test9,2022.1.4,59.99246493791647,
,,,,,,,,2,nBack2Cond.xlsx,121,5,0,0,None,2,120,,,,,,,,,,,,,0,1,1,1,0,0,0,0,,,,,,,,,,,,,,,,,,,,,,,,,,,,,,,,,,,,,,,,,,,,,,,,,,,,,,747.7123135000002,None,747.7123135000002,None,747.7123135000002,None,None,750.1438552000327,None,750.1438552000327,751.1520639000228,751.1350956999813,None,750.1438552000327,None,750.1438552000327,None,750.1438552000327,None,750.1438552000327,None,750.1438552000327,None,750.1438552000327,None,750.1438552000327,None,750.1438552000327,None,,,,,,,,,,,,,,,,,,,,,,,,,3,001,2022-09-26_15h56.45.811,test9,2022.1.4,59.99246493791647,
,,,,,,,,2,nBack2Cond.xlsx,121,2,0,0.2,None,2,121,,,,,,,,,,,,,0,1,1,1,0,1,1,1,,,,,,,,,,,,,,,,,,,,,,,,,,,,,,,,,,,,,,,,,,,,,,,,,,,,,,,,,,,,None,752.1394102000049,None,752.1394102000049,753.1524646999897,753.1351694000186,None,752.1394102000049,None,752.1394102000049,None,752.1394102000049,None,752.1394102000049,None,752.1394102000049,None,752.1394102000049,None,752.1394102000049,None,752.1394102000049,None,,,,,,,,,,,,,,,,,,,,,,,,,3,001,2022-09-26_15h56.45.811,test9,2022.1.4,59.99246493791647,
,,,,,,,,2,nBack2Cond.xlsx,121,6,0.2,0,None,2,122,,,,,,,,,,,,,0,1,1,1,0,2,2,2,,,,,,,,,,,,,,,,,,,,,,,,,,,,,,,,,,,,,,,,,,,,,,,,,,,,,,,,,,,,None,754.1408354000305,None,754.1408354000305,755.1525082000298,755.135383100016,None,754.1408354000305,None,754.1408354000305,None,754.1408354000305,None,754.1408354000305,None,754.1408354000305,None,754.1408354000305,None,754.1408354000305,None,754.1408354000305,None,,,,,,,,,,,,,,,,,,,,,,,,,3,001,2022-09-26_15h56.45.811,test9,2022.1.4,59.99246493791647,
,,,,,,,,2,nBack2Cond.xlsx,121,9,0.2,-0.2,None,2,123,,,,,,,,,,,,,0,1,1,1,0,3,3,3,,,,,,,,,,,,,,,,,,,,,,,,,,,,,,,,,,,,,,,,,,,,,,,,,,,,,,,,,,,,None,756.1390899000107,None,756.1390899000107,757.1520653000334,757.1351888999925,None,756.1390899000107,None,756.1390899000107,None,756.1390899000107,None,756.1390899000107,None,756.1390899000107,None,756.1390899000107,None,756.1390899000107,None,756.1390899000107,None,,,,,,,,,,,,,,,,,,,,,,,,,3,001,2022-09-26_15h56.45.811,test9,2022.1.4,59.99246493791647,
,,,,,,,,2,nBack2Cond.xlsx,121,3,0.2,0.2,None,2,124,,,,,,,,,,,,,0,1,1,1,0,4,4,4,,,,,,,,,,,,,,,,,,,,,,,,,,,,,,,,,,,,,,,,,,,,,,,,,,,,,,,,,,,,None,758.1369830000331,None,758.1369830000331,759.1521520999959,759.1352006000234,None,758.1369830000331,None,758.1369830000331,None,758.1369830000331,None,758.1369830000331,None,758.1369830000331,None,758.1369830000331,None,758.1369830000331,None,758.1369830000331,None,,,,,,,,,,,,,,,,,,,,,,,,,3,001,2022-09-26_15h56.45.811,test9,2022.1.4,59.99246493791647,
,,,,,,,,2,nBack2Cond.xlsx,121,9,0.2,-0.2,space,2,125,,,,,,,,,,,,,0,1,1,1,0,5,5,5,,,,,,,,,,,,,,,,,,,,,,,,,,,,,,,,,,,,,,,,,,,,,,,,,,,,,,,,,,,,space,760.1368782999925,None,760.1368782999925,761.1525005000294,761.1352013000287,None,760.1368782999925,None,760.1368782999925,None,760.1368782999925,None,760.1368782999925,None,760.1368782999925,None,760.1368782999925,None,760.1368782999925,None,760.1368782999925,None,0.4202701000031084,,,,,,,,,,,,,,,,,,,,,,,,3,001,2022-09-26_15h56.45.811,test9,2022.1.4,59.99246493791647,
,,,,,,,,2,nBack2Cond.xlsx,121,7,-0.2,-0.2,None,2,126,,,,,,,,,,,,,0,1,1,1,0,6,6,6,,,,,,,,,,,,,,,,,,,,,,,,,,,,,,,,,,,,,,,,,,,,,,,,,,,,,,,,,,,,None,762.1371857000049,None,762.1371857000049,763.1523742999998,763.1353124000016,None,762.1371857000049,None,762.1371857000049,None,762.1371857000049,None,762.1371857000049,None,762.1371857000049,None,762.1371857000049,None,762.1371857000049,None,762.1371857000049,None,,,,,,,,,,,,,,,,,,,,,,,,,3,001,2022-09-26_15h56.45.811,test9,2022.1.4,59.99246493791647,
,,,,,,,,2,nBack2Cond.xlsx,121,1,-0.2,0.2,None,2,127,,,,,,,,,,,,,0,1,1,1,0,7,7,7,,,,,,,,,,,,,,,,,,,,,,,,,,,,,,,,,,,,,,,,,,,,,,,,,,,,,,,,,,,,None,764.138244599977,None,764.138244599977,765.1524895000039,765.1353600000148,None,764.138244599977,None,764.138244599977,None,764.138244599977,None,764.138244599977,None,764.138244599977,None,764.138244599977,None,764.138244599977,None,764.138244599977,None,,,,,,,,,,,,,,,,,,,,,,,,,3,001,2022-09-26_15h56.45.811,test9,2022.1.4,59.99246493791647,
,,,,,,,,2,nBack2Cond.xlsx,121,5,0,0,None,2,128,,,,,,,,,,,,,0,1,1,1,0,8,8,8,,,,,,,,,,,,,,,,,,,,,,,,,,,,,,,,,,,,,,,,,,,,,,,,,,,,,,,,,,,,None,766.1391815000097,None,766.1391815000097,767.1524737,767.1352537000203,None,766.1391815000097,None,766.1391815000097,None,766.1391815000097,None,766.1391815000097,None,766.1391815000097,None,766.1391815000097,None,766.1391815000097,None,766.1391815000097,None,,,,,,,,,,,,,,,,,,,,,,,,,3,001,2022-09-26_15h56.45.811,test9,2022.1.4,59.99246493791647,
,,,,,,,,2,nBack2Cond.xlsx,121,7,-0.2,-0.2,None,2,129,,,,,,,,,,,,,0,1,1,1,0,9,9,9,,,,,,,,,,,,,,,,,,,,,,,,,,,,,,,,,,,,,,,,,,,,,,,,,,,,,,,,,,,,None,768.1375820999965,None,768.1375820999965,769.1519332000171,769.1351868999773,None,768.1375820999965,None,768.1375820999965,None,768.1375820999965,None,768.1375820999965,None,768.1375820999965,None,768.1375820999965,None,768.1375820999965,None,768.1375820999965,None,,,,,,,,,,,,,,,,,,,,,,,,,3,001,2022-09-26_15h56.45.811,test9,2022.1.4,59.99246493791647,
,,,,,,,,2,nBack2Cond.xlsx,121,5,0,0,space,2,130,,,,,,,,,,,,,0,1,1,1,0,10,10,10,,,,,,,,,,,,,,,,,,,,,,,,,,,,,,,,,,,,,,,,,,,,,,,,,,,,,,,,,,,,space,770.1396635000128,None,770.1396635000128,771.1523022000329,771.1351325000287,None,770.1396635000128,None,770.1396635000128,None,770.1396635000128,None,770.1396635000128,None,770.1396635000128,None,770.1396635000128,None,770.1396635000128,None,770.1396635000128,None,0.3847992999944836,,,,,,,,,,,,,,,,,,,,,,,,3,001,2022-09-26_15h56.45.811,test9,2022.1.4,59.99246493791647,
,,,,,,,,2,nBack2Cond.xlsx,121,6,0.2,0,None,2,131,,,,,,,,,,,,,0,1,1,1,0,11,11,11,,,,,,,,,,,,,,,,,,,,,,,,,,,,,,,,,,,,,,,,,,,,,,,,,,,,,,,,,,,,None,772.1395810000249,None,772.1395810000249,773.1521729999804,773.1352304000175,None,772.1395810000249,None,772.1395810000249,None,772.1395810000249,None,772.1395810000249,None,772.1395810000249,None,772.1395810000249,None,772.1395810000249,None,772.1395810000249,None,,,,,,,,,,,,,,,,,,,,,,,,,3,001,2022-09-26_15h56.45.811,test9,2022.1.4,59.99246493791647,
,,,,,,,,2,nBack2Cond.xlsx,121,3,0.2,0.2,None,2,132,,,,,,,,,,,,,0,1,1,1,0,12,12,12,,,,,,,,,,,,,,,,,,,,,,,,,,,,,,,,,,,,,,,,,,,,,,,,,,,,,,,,,,,,None,774.1401145000127,None,774.1401145000127,775.1522244000225,775.1352478000335,None,774.1401145000127,None,774.1401145000127,None,774.1401145000127,None,774.1401145000127,None,774.1401145000127,None,774.1401145000127,None,774.1401145000127,None,774.1401145000127,None,,,,,,,,,,,,,,,,,,,,,,,,,3,001,2022-09-26_15h56.45.811,test9,2022.1.4,59.99246493791647,
,,,,,,,,2,nBack2Cond.xlsx,121,6,0.2,0,space,2,133,,,,,,,,,,,,,0,1,1,1,0,13,13,13,,,,,,,,,,,,,,,,,,,,,,,,,,,,,,,,,,,,,,,,,,,,,,,,,,,,,,,,,,,,space,776.138442800031,None,776.138442800031,777.1524083000259,777.1352873999858,None,776.138442800031,None,776.138442800031,None,776.138442800031,None,776.138442800031,None,776.138442800031,None,776.138442800031,None,776.138442800031,None,776.138442800031,None,0.5539493999676779,,,,,,,,,,,,,,,,,,,,,,,,3,001,2022-09-26_15h56.45.811,test9,2022.1.4,59.99246493791647,
,,,,,,,,2,nBack2Cond.xlsx,121,8,0,-0.2,None,2,134,,,,,,,,,,,,,0,1,1,1,0,14,14,14,,,,,,,,,,,,,,,,,,,,,,,,,,,,,,,,,,,,,,,,,,,,,,,,,,,,,,,,,,,,None,778.1394050000235,None,778.1394050000235,779.1521183000295,779.1351590999984,None,778.1394050000235,None,778.1394050000235,None,778.1394050000235,None,778.1394050000235,None,778.1394050000235,None,778.1394050000235,None,778.1394050000235,None,778.1394050000235,None,,,,,,,,,,,,,,,,,,,,,,,,,3,001,2022-09-26_15h56.45.811,test9,2022.1.4,59.99246493791647,
,,,,,,,,2,nBack2Cond.xlsx,121,9,0.2,-0.2,None,2,135,,,,,,,,,,,,,0,1,1,1,0,15,15,15,,,,,,,,,,,,,,,,,,,,,,,,,,,,,,,,,,,,,,,,,,,,,,,,,,,,,,,,,,,,None,780.1374432999874,None,780.1374432999874,781.1522011000197,781.1352507999982,None,780.1374432999874,None,780.1374432999874,None,780.1374432999874,None,780.1374432999874,None,780.1374432999874,None,780.1374432999874,None,780.1374432999874,None,780.1374432999874,None,,,,,,,,,,,,,,,,,,,,,,,,,3,001,2022-09-26_15h56.45.811,test9,2022.1.4,59.99246493791647,
,,,,,,,,2,nBack2Cond.xlsx,121,9,0.2,-0.2,None,2,136,,,,,,,,,,,,,0,1,1,1,0,16,16,16,,,,,,,,,,,,,,,,,,,,,,,,,,,,,,,,,,,,,,,,,,,,,,,,,,,,,,,,,,,,space,782.1395462999935,None,782.1395462999935,783.1521738999872,783.1353800999932,None,782.1395462999935,None,782.1395462999935,None,782.1395462999935,None,782.1395462999935,None,782.1395462999935,None,782.1395462999935,None,782.1395462999935,None,782.1395462999935,None,0.7705092999967746,,,,,,,,,,,,,,,,,,,,,,,,3,001,2022-09-26_15h56.45.811,test9,2022.1.4,59.99246493791647,
,,,,,,,,2,nBack2Cond.xlsx,121,1,-0.2,0.2,None,2,137,,,,,,,,,,,,,0,1,1,1,0,17,17,17,,,,,,,,,,,,,,,,,,,,,,,,,,,,,,,,,,,,,,,,,,,,,,,,,,,,,,,,,,,,None,784.1389907000121,None,784.1389907000121,785.1521895999904,785.135513700021,None,784.1389907000121,None,784.1389907000121,None,784.1389907000121,None,784.1389907000121,None,784.1389907000121,None,784.1389907000121,None,784.1389907000121,None,784.1389907000121,None,,,,,,,,,,,,,,,,,,,,,,,,,3,001,2022-09-26_15h56.45.811,test9,2022.1.4,59.99246493791647,
,,,,,,,,2,nBack2Cond.xlsx,121,3,0.2,0.2,None,2,138,,,,,,,,,,,,,0,1,1,1,0,18,18,18,,,,,,,,,,,,,,,,,,,,,,,,,,,,,,,,,,,,,,,,,,,,,,,,,,,,,,,,,,,,None,786.1383909999859,None,786.1383909999859,787.1523257999797,787.135232999979,None,786.1383909999859,None,786.1383909999859,None,786.1383909999859,None,786.1383909999859,None,786.1383909999859,None,786.1383909999859,None,786.1383909999859,None,786.1383909999859,None,,,,,,,,,,,,,,,,,,,,,,,,,3,001,2022-09-26_15h56.45.811,test9,2022.1.4,59.99246493791647,
,,,,,,,,2,nBack2Cond.xlsx,121,5,0,0,None,2,139,,,,,,,,,,,,,0,1,1,1,0,19,19,19,,,,,,,,,,,,,,,,,,,,,,,,,,,,,,,,,,,,,,,,,,,,,,,,,,,,,,,,,,,,None,788.137513099995,None,788.137513099995,789.152047200012,789.135238900024,None,788.137513099995,None,788.137513099995,None,788.137513099995,None,788.137513099995,None,788.137513099995,None,788.137513099995,None,788.137513099995,None,788.137513099995,None,,,,,,,,,,,,,,,,,,,,,,,,,3,001,2022-09-26_15h56.45.811,test9,2022.1.4,59.99246493791647,
,,,,,,,,2,nBack2Cond.xlsx,121,3,0.2,0.2,space,2,140,,,,,,,,,,,,,0,1,1,1,0,20,20,20,,,,,,,,,,,,,,,,,,,,,,,,,,,,,,,,,,,,,,,,,,,,,,,,,,,,,,,,,,,,space,790.1371233999962,None,790.1371233999962,791.152251099993,791.1352403999772,None,790.1371233999962,None,790.1371233999962,None,790.1371233999962,None,790.1371233999962,None,790.1371233999962,None,790.1371233999962,None,790.1371233999962,None,790.1371233999962,None,0.4122344999923371,,,,,,,,,,,,,,,,,,,,,,,,3,001,2022-09-26_15h56.45.811,test9,2022.1.4,59.99246493791647,
,,,,,,,,2,nBack2Cond.xlsx,121,4,-0.2,0,None,2,141,,,,,,,,,,,,,0,1,1,1,0,21,21,21,,,,,,,,,,,,,,,,,,,,,,,,,,,,,,,,,,,,,,,,,,,,,,,,,,,,,,,,,,,,None,792.1392481999937,None,792.1392481999937,793.1524705999764,793.1353796999902,None,792.1392481999937,None,792.1392481999937,None,792.1392481999937,None,792.1392481999937,None,792.1392481999937,None,792.1392481999937,None,792.1392481999937,None,792.1392481999937,None,,,,,,,,,,,,,,,,,,,,,,,,,3,001,2022-09-26_15h56.45.811,test9,2022.1.4,59.99246493791647,
,,,,,,,,2,nBack2Cond.xlsx,121,7,-0.2,-0.2,None,2,142,,,,,,,,,,,,,0,1,1,1,0,22,22,22,,,,,,,,,,,,,,,,,,,,,,,,,,,,,,,,,,,,,,,,,,,,,,,,,,,,,,,,,,,,None,794.139152800024,None,794.139152800024,795.1522652999847,795.1353835000191,None,794.139152800024,None,794.139152800024,None,794.139152800024,None,794.139152800024,None,794.139152800024,None,794.139152800024,None,794.139152800024,None,794.139152800024,None,,,,,,,,,,,,,,,,,,,,,,,,,3,001,2022-09-26_15h56.45.811,test9,2022.1.4,59.99246493791647,
,,,,,,,,2,nBack2Cond.xlsx,121,4,-0.2,0,space,2,143,,,,,,,,,,,,,0,1,1,1,0,23,23,23,,,,,,,,,,,,,,,,,,,,,,,,,,,,,,,,,,,,,,,,,,,,,,,,,,,,,,,,,,,,space,796.1396030000178,None,796.1396030000178,797.1523638999788,797.1359101000126,None,796.1396030000178,None,796.1396030000178,None,796.1396030000178,None,796.1396030000178,None,796.1396030000178,None,796.1396030000178,None,796.1396030000178,None,796.1396030000178,None,0.3455443000420928,,,,,,,,,,,,,,,,,,,,,,,,3,001,2022-09-26_15h56.45.811,test9,2022.1.4,59.99246493791647,
,,,,,,,,2,nBack2Cond.xlsx,121,4,-0.2,0,None,2,144,,,,,,,,,,,,,0,1,1,1,0,24,24,24,,,,,,,,,,,,,,,,,,,,,,,,,,,,,,,,,,,,,,,,,,,,,,,,,,,,,,,,,,,,None,798.13788200001,None,798.13788200001,799.1521811999846,799.1353171999799,None,798.13788200001,None,798.13788200001,None,798.13788200001,None,798.13788200001,None,798.13788200001,None,798.13788200001,None,798.13788200001,None,798.13788200001,None,,,,,,,,,,,,,,,,,,,,,,,,,3,001,2022-09-26_15h56.45.811,test9,2022.1.4,59.99246493791647,
,,,,,,,,2,nBack2Cond.xlsx,121,5,0,0,None,2,145,,,,,,,,,,,,,0,1,1,1,0,25,25,25,,,,,,,,,,,,,,,,,,,,,,,,,,,,,,,,,,,,,,,,,,,,,,,,,,,,,,,,,,,,None,800.1370811000234,None,800.1370811000234,801.1522932000225,801.1353292000131,None,800.1370811000234,None,800.1370811000234,None,800.1370811000234,None,800.1370811000234,None,800.1370811000234,None,800.1370811000234,None,800.1370811000234,None,800.1370811000234,None,,,,,,,,,,,,,,,,,,,,,,,,,3,001,2022-09-26_15h56.45.811,test9,2022.1.4,59.99246493791647,
,,,,,,,,2,nBack2Cond.xlsx,121,2,0,0.2,None,2,146,,,,,,,,,,,,,0,1,1,1,0,26,26,26,,,,,,,,,,,,,,,,,,,,,,,,,,,,,,,,,,,,,,,,,,,,,,,,,,,,,,,,,,,,None,802.1400399000267,None,802.1400399000267,803.152276000008,803.1352738999994,None,802.1400399000267,None,802.1400399000267,None,802.1400399000267,None,802.1400399000267,None,802.1400399000267,None,802.1400399000267,None,802.1400399000267,None,802.1400399000267,None,,,,,,,,,,,,,,,,,,,,,,,,,3,001,2022-09-26_15h56.45.811,test9,2022.1.4,59.99246493791647,
,,,,,,,,2,nBack2Cond.xlsx,121,6,0.2,0,None,2,147,,,,,,,,,,,,,0,1,1,1,0,27,27,27,,,,,,,,,,,,,,,,,,,,,,,,,,,,,,,,,,,,,,,,,,,,,,,,,,,,,,,,,,,,None,804.1378005000297,None,804.1378005000297,805.1525003000279,805.1352846000227,None,804.1378005000297,None,804.1378005000297,None,804.1378005000297,None,804.1378005000297,None,804.1378005000297,None,804.1378005000297,None,804.1378005000297,None,804.1378005000297,None,,,,,,,,,,,,,,,,,,,,,,,,,3,001,2022-09-26_15h56.45.811,test9,2022.1.4,59.99246493791647,
,,,,,,,,2,nBack2Cond.xlsx,121,7,-0.2,-0.2,None,2,148,,,,,,,,,,,,,0,1,1,1,0,28,28,28,,,,,,,,,,,,,,,,,,,,,,,,,,,,,,,,,,,,,,,,,,,,,,,,,,,,,,,,,,,,None,806.1386498999782,None,806.1386498999782,807.1523332999786,807.1353913000203,None,806.1386498999782,None,806.1386498999782,None,806.1386498999782,None,806.1386498999782,None,806.1386498999782,None,806.1386498999782,None,806.1386498999782,None,806.1386498999782,None,,,,,,,,,,,,,,,,,,,,,,,,,3,001,2022-09-26_15h56.45.811,test9,2022.1.4,59.99246493791647,
,,,,,,,,2,nBack2Cond.xlsx,121,6,0.2,0,space,2,149,,,,,,,,,,,,,0,1,1,1,0,29,29,29,,,,,,,,,,,,,,,,,,,,,,,,,,,,,,,,,,,,,,,,,,,,,,,,,,,,,,,,,,,,space,808.1372878000257,None,808.1372878000257,809.1525904000155,809.1355692999787,None,808.1372878000257,None,808.1372878000257,None,808.1372878000257,None,808.1372878000257,None,808.1372878000257,None,808.1372878000257,None,808.1372878000257,None,808.1372878000257,None,1.1959110000170767,,,,,,,,,,,,,,,,,,,,,,,,3,001,2022-09-26_15h56.45.811,test9,2022.1.4,59.99246493791647,
,,,,,,,,2,nBack2Cond.xlsx,121,8,0,-0.2,None,2,150,,,,,,,,,,,,,0,1,1,1,0,30,30,30,,,,,,,,,,,,,,,,,,,,,,,,,,,,,,,,,,,,,,,,,,,,,,,,,,,,,,,,,,,,None,810.1371631000075,None,810.1371631000075,811.1523063000059,811.1352827000082,None,810.1371631000075,None,810.1371631000075,None,810.1371631000075,None,810.1371631000075,None,810.1371631000075,None,810.1371631000075,None,810.1371631000075,None,810.1371631000075,None,,,,,,,,,,,,,,,,,,,,,,,,,3,001,2022-09-26_15h56.45.811,test9,2022.1.4,59.99246493791647,
,,,,,,,,2,nBack2Cond.xlsx,121,2,0,0.2,None,2,151,,,,,,,,,,,,,0,1,1,1,0,31,31,31,,,,,,,,,,,,,,,,,,,,,,,,,,,,,,,,,,,,,,,,,,,,,,,,,,,,,,,,,,,,None,812.1373995000031,None,812.1373995000031,813.1523036999861,813.1353488999885,None,812.1373995000031,None,812.1373995000031,None,812.1373995000031,None,812.1373995000031,None,812.1373995000031,None,812.1373995000031,None,812.1373995000031,None,812.1373995000031,None,,,,,,,,,,,,,,,,,,,,,,,,,3,001,2022-09-26_15h56.45.811,test9,2022.1.4,59.99246493791647,
,,,,,,,,2,nBack2Cond.xlsx,121,8,0,-0.2,space,2,152,,,,,,,,,,,,,0,1,1,1,0,32,32,32,,,,,,,,,,,,,,,,,,,,,,,,,,,,,,,,,,,,,,,,,,,,,,,,,,,,,,,,,,,,space,814.1405952000059,None,814.1405952000059,815.1526702999836,815.1355418000021,None,814.1405952000059,None,814.1405952000059,None,814.1405952000059,None,814.1405952000059,None,814.1405952000059,None,814.1405952000059,None,814.1405952000059,None,814.1405952000059,None,0.6655783000169322,,,,,,,,,,,,,,,,,,,,,,,,3,001,2022-09-26_15h56.45.811,test9,2022.1.4,59.99246493791647,
,,,,,,,,2,nBack2Cond.xlsx,121,9,0.2,-0.2,None,2,153,,,,,,,,,,,,,0,1,1,1,0,33,33,33,,,,,,,,,,,,,,,,,,,,,,,,,,,,,,,,,,,,,,,,,,,,,,,,,,,,,,,,,,,,None,816.1375100000296,None,816.1375100000296,817.152513100009,817.1353396999766,None,816.1375100000296,None,816.1375100000296,None,816.1375100000296,None,816.1375100000296,None,816.1375100000296,None,816.1375100000296,None,816.1375100000296,None,816.1375100000296,None,,,,,,,,,,,,,,,,,,,,,,,,,3,001,2022-09-26_15h56.45.811,test9,2022.1.4,59.99246493791647,
,,,,,,,,2,nBack2Cond.xlsx,121,6,0.2,0,None,2,154,,,,,,,,,,,,,0,1,1,1,0,34,34,34,,,,,,,,,,,,,,,,,,,,,,,,,,,,,,,,,,,,,,,,,,,,,,,,,,,,,,,,,,,,None,818.1371940000099,None,818.1371940000099,819.1523455000133,819.1353127000039,None,818.1371940000099,None,818.1371940000099,None,818.1371940000099,None,818.1371940000099,None,818.1371940000099,None,818.1371940000099,None,818.1371940000099,None,818.1371940000099,None,,,,,,,,,,,,,,,,,,,,,,,,,3,001,2022-09-26_15h56.45.811,test9,2022.1.4,59.99246493791647,
,,,,,,,,2,nBack2Cond.xlsx,121,9,0.2,-0.2,space,2,155,,,,,,,,,,,,,0,1,1,1,0,35,35,35,,,,,,,,,,,,,,,,,,,,,,,,,,,,,,,,,,,,,,,,,,,,,,,,,,,,,,,,,,,,space,820.1371190000209,None,820.1371190000209,821.152499400021,821.1354714999907,None,820.1371190000209,None,820.1371190000209,None,820.1371190000209,None,820.1371190000209,None,820.1371190000209,None,820.1371190000209,None,820.1371190000209,None,820.1371190000209,None,0.49937999999383464,,,,,,,,,,,,,,,,,,,,,,,,3,001,2022-09-26_15h56.45.811,test9,2022.1.4,59.99246493791647,
,,,,,,,,2,nBack2Cond.xlsx,121,4,-0.2,0,None,2,156,,,,,,,,,,,,,0,1,1,1,0,36,36,36,,,,,,,,,,,,,,,,,,,,,,,,,,,,,,,,,,,,,,,,,,,,,,,,,,,,,,,,,,,,None,822.1389141000109,None,822.1389141000109,823.1527198000113,823.1354214000166,None,822.1389141000109,None,822.1389141000109,None,822.1389141000109,None,822.1389141000109,None,822.1389141000109,None,822.1389141000109,None,822.1389141000109,None,822.1389141000109,None,,,,,,,,,,,,,,,,,,,,,,,,,3,001,2022-09-26_15h56.45.811,test9,2022.1.4,59.99246493791647,
,,,,,,,,2,nBack2Cond.xlsx,121,3,0.2,0.2,None,2,157,,,,,,,,,,,,,0,1,1,1,0,37,37,37,,,,,,,,,,,,,,,,,,,,,,,,,,,,,,,,,,,,,,,,,,,,,,,,,,,,,,,,,,,,None,824.1386678999988,None,824.1386678999988,825.1527426000102,825.1355573000037,None,824.1386678999988,None,824.1386678999988,None,824.1386678999988,None,824.1386678999988,None,824.1386678999988,None,824.1386678999988,None,824.1386678999988,None,824.1386678999988,None,,,,,,,,,,,,,,,,,,,,,,,,,3,001,2022-09-26_15h56.45.811,test9,2022.1.4,59.99246493791647,
,,,,,,,,2,nBack2Cond.xlsx,121,8,0,-0.2,None,2,158,,,,,,,,,,,,,0,1,1,1,0,38,38,38,,,,,,,,,,,,,,,,,,,,,,,,,,,,,,,,,,,,,,,,,,,,,,,,,,,,,,,,,,,,None,826.1372542000026,None,826.1372542000026,827.1523417999852,827.1353586000041,None,826.1372542000026,None,826.1372542000026,None,826.1372542000026,None,826.1372542000026,None,826.1372542000026,None,826.1372542000026,None,826.1372542000026,None,826.1372542000026,None,,,,,,,,,,,,,,,,,,,,,,,,,3,001,2022-09-26_15h56.45.811,test9,2022.1.4,59.99246493791647,
,,,,,,,,2,nBack2Cond.xlsx,121,3,0.2,0.2,space,2,159,,,,,,,,,,,,,0,1,1,1,0,39,39,39,,,,,,,,,,,,,,,,,,,,,,,,,,,,,,,,,,,,,,,,,,,,,,,,,,,,,,,,,,,,space,828.137263200013,None,828.137263200013,829.1522792000324,829.1354190999991,None,828.137263200013,None,828.137263200013,None,828.137263200013,None,828.137263200013,None,828.137263200013,None,828.137263200013,None,828.137263200013,None,828.137263200013,None,0.34809089999180287,,,,,,,,,,,,,,,,,,,,,,,,3,001,2022-09-26_15h56.45.811,test9,2022.1.4,59.99246493791647,
,,,,,,,,2,nBack2Cond.xlsx,121,1,-0.2,0.2,None,2,160,,,,,,,,,,,,,0,1,1,1,0,40,40,40,,,,,,,,,,,,,,,,,,,,,,,,,,,,,,,,,,,,,,,,,,,,,,,,,,,,,,,,,,,,None,830.1371767999954,None,830.1371767999954,831.1524763000198,831.1354699999793,None,830.1371767999954,None,830.1371767999954,None,830.1371767999954,None,830.1371767999954,None,830.1371767999954,None,830.1371767999954,None,830.1371767999954,None,830.1371767999954,None,,,,,,,,,,,,,,,,,,,,,,,,,3,001,2022-09-26_15h56.45.811,test9,2022.1.4,59.99246493791647,
,,,,,,,,2,nBack2Cond.xlsx,121,4,-0.2,0,None,2,161,,,,,,,,,,,,,0,1,1,1,0,41,41,41,,,,,,,,,,,,,,,,,,,,,,,,,,,,,,,,,,,,,,,,,,,,,,,,,,,,,,,,,,,,None,832.139081500005,None,832.139081500005,833.1524923000252,833.135342900001,None,832.139081500005,None,832.139081500005,None,832.139081500005,None,832.139081500005,None,832.139081500005,None,832.139081500005,None,832.139081500005,None,832.139081500005,None,,,,,,,,,,,,,,,,,,,,,,,,,3,001,2022-09-26_15h56.45.811,test9,2022.1.4,59.99246493791647,
,,,,,,,,2,nBack2Cond.xlsx,121,2,0,0.2,None,2,162,,,,,,,,,,,,,0,1,1,1,0,42,42,42,,,,,,,,,,,,,,,,,,,,,,,,,,,,,,,,,,,,,,,,,,,,,,,,,,,,,,,,,,,,None,834.1374254000257,None,834.1374254000257,835.1527635999955,835.1353971000062,None,834.1374254000257,None,834.1374254000257,None,834.1374254000257,None,834.1374254000257,None,834.1374254000257,None,834.1374254000257,None,834.1374254000257,None,834.1374254000257,None,,,,,,,,,,,,,,,,,,,,,,,,,3,001,2022-09-26_15h56.45.811,test9,2022.1.4,59.99246493791647,
,,,,,,,,2,nBack2Cond.xlsx,121,4,-0.2,0,space,2,163,,,,,,,,,,,,,0,1,1,1,0,43,43,43,,,,,,,,,,,,,,,,,,,,,,,,,,,,,,,,,,,,,,,,,,,,,,,,,,,,,,,,,,,,space,836.1389737999998,None,836.1389737999998,837.1523677000077,837.1355073000304,None,836.1389737999998,None,836.1389737999998,None,836.1389737999998,None,836.1389737999998,None,836.1389737999998,None,836.1389737999998,None,836.1389737999998,None,836.1389737999998,None,0.5623426000238396,,,,,,,,,,,,,,,,,,,,,,,,3,001,2022-09-26_15h56.45.811,test9,2022.1.4,59.99246493791647,
,,,,,,,,2,nBack2Cond.xlsx,121,8,0,-0.2,None,2,164,,,,,,,,,,,,,0,1,1,1,0,44,44,44,,,,,,,,,,,,,,,,,,,,,,,,,,,,,,,,,,,,,,,,,,,,,,,,,,,,,,,,,,,,None,838.1388825000031,None,838.1388825000031,839.1523482999764,839.135285300028,None,838.1388825000031,None,838.1388825000031,None,838.1388825000031,None,838.1388825000031,None,838.1388825000031,None,838.1388825000031,None,838.1388825000031,None,838.1388825000031,None,,,,,,,,,,,,,,,,,,,,,,,,,3,001,2022-09-26_15h56.45.811,test9,2022.1.4,59.99246493791647,
,,,,,,,,2,nBack2Cond.xlsx,121,5,0,0,None,2,165,,,,,,,,,,,,,0,1,1,1,0,45,45,45,,,,,,,,,,,,,,,,,,,,,,,,,,,,,,,,,,,,,,,,,,,,,,,,,,,,,,,,,,,,None,840.1387416999787,None,840.1387416999787,841.1529158999911,841.1352903000079,None,840.1387416999787,None,840.1387416999787,None,840.1387416999787,None,840.1387416999787,None,840.1387416999787,None,840.1387416999787,None,840.1387416999787,None,840.1387416999787,None,,,,,,,,,,,,,,,,,,,,,,,,,3,001,2022-09-26_15h56.45.811,test9,2022.1.4,59.99246493791647,
