eotrial,eocinstr,eocmarker1,eocmarker2,eocmarker3,eocmarker4,itemnumber,itemtext,nbackInstruction,condsFile,nbackmarker1,square,loc1,loc2,corrAns,trialsNum,trialNum,eoecloop.thisRepN,eoecloop.thisTrialN,eoecloop.thisN,eoecloop.thisIndex,wakeup.thisRepN,wakeup.thisTrialN,wakeup.thisN,wakeup.thisIndex,questions.thisRepN,questions.thisTrialN,questions.thisN,questions.thisIndex,nb_taskloop.thisRepN,nb_taskloop.thisTrialN,nb_taskloop.thisN,nb_taskloop.thisIndex,nb_trials.thisRepN,nb_trials.thisTrialN,nb_trials.thisN,nb_trials.thisIndex,key_resp_3.keys,key_resp_3.rt,key_resp_3.started,key_resp_3.stopped,text_4.started,text_4.stopped,mouse_2.x,mouse_2.y,mouse_2.leftButton,mouse_2.midButton,mouse_2.rightButton,mouse_2.started,mouse_2.stopped,h_eoec.started,h_eoec.stopped,text_2.started,text_2.stopped,key_resp.keys,key_resp.started,key_resp.stopped,text_8.started,text_8.stopped,key_resp_10.keys,key_resp_10.started,key_resp_10.stopped,img_whte.started,img_whte.stopped,img_black.started,img_black.stopped,text_5.started,text_5.stopped,key_resp_4.keys,key_resp_4.rt,key_resp_4.started,key_resp_4.stopped,mouse.x,mouse.y,mouse.leftButton,mouse.midButton,mouse.rightButton,mouse.started,mouse.stopped,h_arsq.started,h_arsq.stopped,slider.response,slider.rt,slider.started,slider.stopped,text.started,text.stopped,key_resp_9.keys,key_resp_9.started,key_resp_9.stopped,instrText.started,instrText.stopped,h_nback.started,h_nback.stopped,instrImg.started,instrImg.stopped,trialResp.keys,trialResp.started,trialResp.stopped,trialSquare.started,trialSquare.stopped,trialFix.started,trialFix.stopped,gridLine1.started,gridLine1.stopped,gridLine2.started,gridLine2.stopped,gridLine3.started,gridLine3.stopped,gridLine4.started,gridLine4.stopped,gridLine5.started,gridLine5.stopped,gridLine6.started,gridLine6.stopped,gridLine7.started,gridLine7.stopped,gridLine8.started,gridLine8.stopped,trialResp.rt,endText.started,endText.stopped,key_resp_5.keys,key_resp_5.rt,key_resp_5.started,key_resp_5.stopped,text_6.started,text_6.stopped,key_resp_6.keys,key_resp_6.rt,key_resp_6.started,key_resp_6.stopped,h_movie.started,h_movie.stopped,participant,session,date,expName,psychopyVersion,frameRate,
,,,,,,,,,,,,,,,,,,,,,,,,,,,,,,,,,,,,,space,28.691268200054765,46.93998350005131,None,,,,,,,,,,,,,,,,,,,,,,,,,,,,,,,,,,,,,,,,,,,,,,,,,,,,,,,,,,,,,,,,,,,,,,,,,,,,,,,,,,,,,,,,,,,,,,77,001,2022-10-06_13h09.40.129,test9,2022.1.4,60.08485183033713,
,,,,,,,,,,,,,,,,,,,,,,,,,,,,,,,,,,,,,,,,,46.93998350005131,None,0.88796294,0.07962963,0,0,0,0.012908199103549123,None,,,,,,,,,,,,,,,,,,,,,,,,,,,,,,,,,,,,,,,,,,,,,,,,,,,,,,,,,,,,,,,,,,,,,,,,,,,,,,,,,,,,,77,001,2022-10-06_13h09.40.129,test9,2022.1.4,60.08485183033713,
1,eyes open,11,12,13,14,,,,,,,,,,,,0,0,0,0,,,,,,,,,,,,,,,,,,,,,,,,,,,,,,46.93998350005131,None,75.67508349998388,None,None,75.67508349998388,None,77.68044180003926,None,None,77.68044180003926,None,,,,,,,,,,,,,,,,,,,,,,,,,,,,,,,,,,,,,,,,,,,,,,,,,,,,,,,,,,,,,,,,,,,,,,,,,77,001,2022-10-06_13h09.40.129,test9,2022.1.4,60.08485183033713,
2,eyes closed,21,22,23,24,,,,,,,,,,,,0,1,1,1,,,,,,,,,,,,,,,,,,,,,,,,,,,,,,,,257.68250019999687,None,None,257.68250019999687,None,259.68076270003803,None,None,259.68076270003803,None,,,,,,,,,,,,,,,,,,,,,,,,,,,,,,,,,,,,,,,,,,,,,,,,,,,,,,,,,,,,,,,,,,,,,,,,,77,001,2022-10-06_13h09.40.129,test9,2022.1.4,60.08485183033713,
,,,,,,,,,,,,,,,,,,,,,0,0,0,0,,,,,,,,,,,,,,,,,,,,,,,,,,,,,,,,,,,,,,439.67837750003673,None,439.8784397999989,None,,,,,,,,,,,,,,,,,,,,,,,,,,,,,,,,,,,,,,,,,,,,,,,,,,,,,,,,,,,,,,,,,,,,,77,001,2022-10-06_13h09.40.129,test9,2022.1.4,60.08485183033713,
,,,,,,,,,,,,,,,,,,,,,1,0,1,0,,,,,,,,,,,,,,,,,,,,,,,,,,,,,,,,,,,,,,440.0785021999618,None,440.2783370000543,None,,,,,,,,,,,,,,,,,,,,,,,,,,,,,,,,,,,,,,,,,,,,,,,,,,,,,,,,,,,,,,,,,,,,,77,001,2022-10-06_13h09.40.129,test9,2022.1.4,60.08485183033713,
,,,,,,,,,,,,,,,,,,,,,2,0,2,0,,,,,,,,,,,,,,,,,,,,,,,,,,,,,,,,,,,,,,440.4783568000421,None,440.67855700000655,None,,,,,,,,,,,,,,,,,,,,,,,,,,,,,,,,,,,,,,,,,,,,,,,,,,,,,,,,,,,,,,,,,,,,,77,001,2022-10-06_13h09.40.129,test9,2022.1.4,60.08485183033713,
,,,,,,,,,,,,,,,,,,,,,3,0,3,0,,,,,,,,,,,,,,,,,,,,,,,,,,,,,,,,,,,,,,440.8787220000522,None,441.0785979999928,None,,,,,,,,,,,,,,,,,,,,,,,,,,,,,,,,,,,,,,,,,,,,,,,,,,,,,,,,,,,,,,,,,,,,,77,001,2022-10-06_13h09.40.129,test9,2022.1.4,60.08485183033713,
,,,,,,,,,,,,,,,,,,,,,,,,,,,,,,,,,,,,,,,,,,,,,,,,,,,,,,,,,,,,,,,,,,441.2783996000653,None,space,9.625493800034747,441.2783996000653,None,,,,,,,,,,,,,,,,,,,,,,,,,,,,,,,,,,,,,,,,,,,,,,,,,,,,,,,,,,,,,,,77,001,2022-10-06_13h09.40.129,test9,2022.1.4,60.08485183033713,
,,,,,,,,,,,,,,,,,,,,,,,,,,,,,,,,,,,,,,,,,,,,,,,,,,,,,,,,,,,,,,,,,,,,,,,,0.88796294,0.07962963,0,0,0,0.015888249850831926,None,,,,,,,,,,,,,,,,,,,,,,,,,,,,,,,,,,,,,,,,,,,,,,,,,,,,,,,,77,001,2022-10-06_13h09.40.129,test9,2022.1.4,60.08485183033713,
,,,,,,5,I placed myself in other peoples shoes,,,,,,,,,,,,,,,,,,0,0,0,4,,,,,,,,,,,,,,,,,,,,,,,,,,,,,,,,,,,,,,,,,,,,,,,,,,,441.2783996000653,None,1.0,4.525555899948813,450.9756155000068,None,450.9756155000068,None,None,450.9756155000068,None,,,,,,,,,,,,,,,,,,,,,,,,,,,,,,,,,,,,,,,,,,,,,77,001,2022-10-06_13h09.40.129,test9,2022.1.4,60.08485183033713,
,,,,,,8,I thought about my behavior,,,,,,,,,,,,,,,,,,0,1,1,7,,,,,,,,,,,,,,,,,,,,,,,,,,,,,,,,,,,,,,,,,,,,,,,,,,,,,4.0,3.6009541999083012,455.7186636000406,None,455.7186636000406,None,None,455.7186636000406,None,,,,,,,,,,,,,,,,,,,,,,,,,,,,,,,,,,,,,,,,,,,,,77,001,2022-10-06_13h09.40.129,test9,2022.1.4,60.08485183033713,
,,,,,,31,I had difficulty remembering my thoughts,,,,,,,,,,,,,,,,,,0,2,2,30,,,,,,,,,,,,,,,,,,,,,,,,,,,,,,,,,,,,,,,,,,,,,,,,,,,,,3.0,2.386164900031872,459.54297020006925,None,459.54297020006925,None,None,459.54297020006925,None,,,,,,,,,,,,,,,,,,,,,,,,,,,,,,,,,,,,,,,,,,,,,77,001,2022-10-06_13h09.40.129,test9,2022.1.4,60.08485183033713,
,,,,,,27,I pictured places,,,,,,,,,,,,,,,,,,0,3,3,26,,,,,,,,,,,,,,,,,,,,,,,,,,,,,,,,,,,,,,,,,,,,,,,,,,,,,2.0,1.8300781999714673,462.1639142000349,None,462.1639142000349,None,None,462.1639142000349,None,,,,,,,,,,,,,,,,,,,,,,,,,,,,,,,,,,,,,,,,,,,,,77,001,2022-10-06_13h09.40.129,test9,2022.1.4,60.08485183033713,
,,,,,,9,I thought about myself,,,,,,,,,,,,,,,,,,0,4,4,8,,,,,,,,,,,,,,,,,,,,,,,,,,,,,,,,,,,,,,,,,,,,,,,,,,,,,3.0,1.7863951000617817,464.2197839000728,None,464.2197839000728,None,None,464.2197839000728,None,,,,,,,,,,,,,,,,,,,,,,,,,,,,,,,,,,,,,,,,,,,,,77,001,2022-10-06_13h09.40.129,test9,2022.1.4,60.08485183033713,
,,,,,,20,I thought about my breathing,,,,,,,,,,,,,,,,,,0,5,5,19,,,,,,,,,,,,,,,,,,,,,,,,,,,,,,,,,,,,,,,,,,,,,,,,,,,,,4.0,1.7349058999679983,466.23939340002835,None,466.23939340002835,None,None,466.23939340002835,None,,,,,,,,,,,,,,,,,,,,,,,,,,,,,,,,,,,,,,,,,,,,,77,001,2022-10-06_13h09.40.129,test9,2022.1.4,60.08485183033713,
,,,,,,33,I felt motivated to participate,,,,,,,,,,,,,,,,,,0,6,6,32,,,,,,,,,,,,,,,,,,,,,,,,,,,,,,,,,,,,,,,,,,,,,,,,,,,,,3.0,3.0171764999395236,468.21479140000883,None,468.21479140000883,None,None,468.21479140000883,None,,,,,,,,,,,,,,,,,,,,,,,,,,,,,,,,,,,,,,,,,,,,,77,001,2022-10-06_13h09.40.129,test9,2022.1.4,60.08485183033713,
,,,,,,23,I thought about my health,,,,,,,,,,,,,,,,,,0,7,7,22,,,,,,,,,,,,,,,,,,,,,,,,,,,,,,,,,,,,,,,,,,,,,,,,,,,,,4.0,1.7518416999373585,471.4629737000214,None,471.4629737000214,None,None,471.4629737000214,None,,,,,,,,,,,,,,,,,,,,,,,,,,,,,,,,,,,,,,,,,,,,,77,001,2022-10-06_13h09.40.129,test9,2022.1.4,60.08485183033713,
,,,,,,18,I felt happy,,,,,,,,,,,,,,,,,,0,8,8,17,,,,,,,,,,,,,,,,,,,,,,,,,,,,,,,,,,,,,,,,,,,,,,,,,,,,,4.0,1.6677122000837699,473.4488345000427,None,473.4488345000427,None,None,473.4488345000427,None,,,,,,,,,,,,,,,,,,,,,,,,,,,,,,,,,,,,,,,,,,,,,77,001,2022-10-06_13h09.40.129,test9,2022.1.4,60.08485183033713,
,,,,,,25,I pictured events,,,,,,,,,,,,,,,,,,0,9,9,24,,,,,,,,,,,,,,,,,,,,,,,,,,,,,,,,,,,,,,,,,,,,,,,,,,,,,2.0,1.9021298000589013,475.34872360003646,None,475.34872360003646,None,None,475.34872360003646,None,,,,,,,,,,,,,,,,,,,,,,,,,,,,,,,,,,,,,,,,,,,,,77,001,2022-10-06_13h09.40.129,test9,2022.1.4,60.08485183033713,
,,,,,,28,I had silent conversations,,,,,,,,,,,,,,,,,,0,10,10,27,,,,,,,,,,,,,,,,,,,,,,,,,,,,,,,,,,,,,,,,,,,,,,,,,,,,,4.0,2.8017271999269724,477.47259200003464,None,477.47259200003464,None,None,477.47259200003464,None,,,,,,,,,,,,,,,,,,,,,,,,,,,,,,,,,,,,,,,,,,,,,77,001,2022-10-06_13h09.40.129,test9,2022.1.4,60.08485183033713,
,,,,,,4,I thought about others,,,,,,,,,,,,,,,,,,0,11,11,3,,,,,,,,,,,,,,,,,,,,,,,,,,,,,,,,,,,,,,,,,,,,,,,,,,,,,4.0,2.0688020999077708,480.5053086000262,None,480.5053086000262,None,None,480.5053086000262,None,,,,,,,,,,,,,,,,,,,,,,,,,,,,,,,,,,,,,,,,,,,,,77,001,2022-10-06_13h09.40.129,test9,2022.1.4,60.08485183033713,
,,,,,,34,I had my eyes closed,,,,,,,,,,,,,,,,,,0,12,12,33,,,,,,,,,,,,,,,,,,,,,,,,,,,,,,,,,,,,,,,,,,,,,,,,,,,,,5.0,2.4023213000036776,482.80504520004615,None,482.80504520004615,None,None,482.80504520004615,None,,,,,,,,,,,,,,,,,,,,,,,,,,,,,,,,,,,,,,,,,,,,,77,001,2022-10-06_13h09.40.129,test9,2022.1.4,60.08485183033713,
,,,,,,21,I thought about my heartbeat,,,,,,,,,,,,,,,,,,0,13,13,20,,,,,,,,,,,,,,,,,,,,,,,,,,,,,,,,,,,,,,,,,,,,,,,,,,,,,4.0,1.667371500050649,485.44945329998154,None,485.44945329998154,None,None,485.44945329998154,None,,,,,,,,,,,,,,,,,,,,,,,,,,,,,,,,,,,,,,,,,,,,,77,001,2022-10-06_13h09.40.129,test9,2022.1.4,60.08485183033713,
,,,,,,30,I imagined talking to myself,,,,,,,,,,,,,,,,,,0,14,14,29,,,,,,,,,,,,,,,,,,,,,,,,,,,,,,,,,,,,,,,,,,,,,,,,,,,,,4.0,2.648386000073515,487.34902109997347,None,487.34902109997347,None,None,487.34902109997347,None,,,,,,,,,,,,,,,,,,,,,,,,,,,,,,,,,,,,,,,,,,,,,77,001,2022-10-06_13h09.40.129,test9,2022.1.4,60.08485183033713,
,,,,,,22,I felt ill,,,,,,,,,,,,,,,,,,0,15,15,21,,,,,,,,,,,,,,,,,,,,,,,,,,,,,,,,,,,,,,,,,,,,,,,,,,,,,2.0,1.6189374999376014,490.23018630000297,None,490.23018630000297,None,None,490.23018630000297,None,,,,,,,,,,,,,,,,,,,,,,,,,,,,,,,,,,,,,,,,,,,,,77,001,2022-10-06_13h09.40.129,test9,2022.1.4,60.08485183033713,
,,,,,,15,I had difficulty staying awake,,,,,,,,,,,,,,,,,,0,16,16,14,,,,,,,,,,,,,,,,,,,,,,,,,,,,,,,,,,,,,,,,,,,,,,,,,,,,,3.0,2.6981599000282586,492.07558489998337,None,492.07558489998337,None,None,492.07558489998337,None,,,,,,,,,,,,,,,,,,,,,,,,,,,,,,,,,,,,,,,,,,,,,77,001,2022-10-06_13h09.40.129,test9,2022.1.4,60.08485183033713,
,,,,,,13,I felt tired,,,,,,,,,,,,,,,,,,0,17,17,12,,,,,,,,,,,,,,,,,,,,,,,,,,,,,,,,,,,,,,,,,,,,,,,,,,,,,4.0,4.0533804999431595,495.01131610001903,None,495.01131610001903,None,None,495.01131610001903,None,,,,,,,,,,,,,,,,,,,,,,,,,,,,,,,,,,,,,,,,,,,,,77,001,2022-10-06_13h09.40.129,test9,2022.1.4,60.08485183033713,
,,,,,,19,I was conscious of my body,,,,,,,,,,,,,,,,,,0,18,18,18,,,,,,,,,,,,,,,,,,,,,,,,,,,,,,,,,,,,,,,,,,,,,,,,,,,,,4.0,1.4840987999923527,499.2938449999783,None,499.2938449999783,None,None,499.2938449999783,None,,,,,,,,,,,,,,,,,,,,,,,,,,,,,,,,,,,,,,,,,,,,,77,001,2022-10-06_13h09.40.129,test9,2022.1.4,60.08485183033713,
,,,,,,35,I was able to rate the statements,,,,,,,,,,,,,,,,,,0,19,19,34,,,,,,,,,,,,,,,,,,,,,,,,,,,,,,,,,,,,,,,,,,,,,,,,,,,,,4.0,2.4862464000470936,501.0051593000535,None,501.0051593000535,None,None,501.0051593000535,None,,,,,,,,,,,,,,,,,,,,,,,,,,,,,,,,,,,,,,,,,,,,,77,001,2022-10-06_13h09.40.129,test9,2022.1.4,60.08485183033713,
,,,,,,16,I felt comfortable,,,,,,,,,,,,,,,,,,0,20,20,15,,,,,,,,,,,,,,,,,,,,,,,,,,,,,,,,,,,,,,,,,,,,,,,,,,,,,4.0,2.4349740999750793,503.7315715000732,None,503.7315715000732,None,None,503.7315715000732,None,,,,,,,,,,,,,,,,,,,,,,,,,,,,,,,,,,,,,,,,,,,,,77,001,2022-10-06_13h09.40.129,test9,2022.1.4,60.08485183033713,
,,,,,,14,I felt sleepy,,,,,,,,,,,,,,,,,,0,21,21,13,,,,,,,,,,,,,,,,,,,,,,,,,,,,,,,,,,,,,,,,,,,,,,,,,,,,,3.0,2.267433900036849,506.3994783000089,None,506.3994783000089,None,None,506.3994783000089,None,,,,,,,,,,,,,,,,,,,,,,,,,,,,,,,,,,,,,,,,,,,,,77,001,2022-10-06_13h09.40.129,test9,2022.1.4,60.08485183033713,
,,,,,,11,I thought about solving problems,,,,,,,,,,,,,,,,,,0,22,22,10,,,,,,,,,,,,,,,,,,,,,,,,,,,,,,,,,,,,,,,,,,,,,,,,,,,,,4.0,1.9014786999905482,508.8992894999683,None,508.8992894999683,None,None,508.8992894999683,None,,,,,,,,,,,,,,,,,,,,,,,,,,,,,,,,,,,,,,,,,,,,,77,001,2022-10-06_13h09.40.129,test9,2022.1.4,60.08485183033713,
,,,,,,1,I had busy thoughts,,,,,,,,,,,,,,,,,,0,23,23,0,,,,,,,,,,,,,,,,,,,,,,,,,,,,,,,,,,,,,,,,,,,,,,,,,,,,,3.0,2.1013795000035316,511.0306639999617,None,511.0306639999617,None,None,511.0306639999617,None,,,,,,,,,,,,,,,,,,,,,,,,,,,,,,,,,,,,,,,,,,,,,77,001,2022-10-06_13h09.40.129,test9,2022.1.4,60.08485183033713,
,,,,,,7,I thought about my feelings,,,,,,,,,,,,,,,,,,0,24,24,6,,,,,,,,,,,,,,,,,,,,,,,,,,,,,,,,,,,,,,,,,,,,,,,,,,,,,3.0,2.502619000035338,513.3547227999661,None,513.3547227999661,None,None,513.3547227999661,None,,,,,,,,,,,,,,,,,,,,,,,,,,,,,,,,,,,,,,,,,,,,,77,001,2022-10-06_13h09.40.129,test9,2022.1.4,60.08485183033713,
,,,,,,10,I thought about things I need to do,,,,,,,,,,,,,,,,,,0,25,25,9,,,,,,,,,,,,,,,,,,,,,,,,,,,,,,,,,,,,,,,,,,,,,,,,,,,,,4.0,2.1853991999523714,516.0994507999858,None,516.0994507999858,None,None,516.0994507999858,None,,,,,,,,,,,,,,,,,,,,,,,,,,,,,,,,,,,,,,,,,,,,,77,001,2022-10-06_13h09.40.129,test9,2022.1.4,60.08485183033713,
,,,,,,26,I thought in images,,,,,,,,,,,,,,,,,,0,26,26,25,,,,,,,,,,,,,,,,,,,,,,,,,,,,,,,,,,,,,,,,,,,,,,,,,,,,,3.0,2.868241299991496,518.505024400074,None,518.505024400074,None,None,518.505024400074,None,,,,,,,,,,,,,,,,,,,,,,,,,,,,,,,,,,,,,,,,,,,,,77,001,2022-10-06_13h09.40.129,test9,2022.1.4,60.08485183033713,
,,,,,,12,I thought about the future,,,,,,,,,,,,,,,,,,0,27,27,11,,,,,,,,,,,,,,,,,,,,,,,,,,,,,,,,,,,,,,,,,,,,,,,,,,,,,4.0,2.3318200000794604,521.6051054999698,None,521.6051054999698,None,None,521.6051054999698,None,,,,,,,,,,,,,,,,,,,,,,,,,,,,,,,,,,,,,,,,,,,,,77,001,2022-10-06_13h09.40.129,test9,2022.1.4,60.08485183033713,
,,,,,,29,I thought in words,,,,,,,,,,,,,,,,,,0,28,28,28,,,,,,,,,,,,,,,,,,,,,,,,,,,,,,,,,,,,,,,,,,,,,,,,,,,,,4.0,1.6192860999144614,524.1803417999763,None,524.1803417999763,None,None,524.1803417999763,None,,,,,,,,,,,,,,,,,,,,,,,,,,,,,,,,,,,,,,,,,,,,,77,001,2022-10-06_13h09.40.129,test9,2022.1.4,60.08485183033713,
,,,,,,2,I had rapidly switching thoughts,,,,,,,,,,,,,,,,,,0,29,29,1,,,,,,,,,,,,,,,,,,,,,,,,,,,,,,,,,,,,,,,,,,,,,,,,,,,,,4.0,2.3680236999643967,526.0230423000176,None,526.0230423000176,None,None,526.0230423000176,None,,,,,,,,,,,,,,,,,,,,,,,,,,,,,,,,,,,,,,,,,,,,,77,001,2022-10-06_13h09.40.129,test9,2022.1.4,60.08485183033713,
,,,,,,17,I felt relaxed,,,,,,,,,,,,,,,,,,0,30,30,16,,,,,,,,,,,,,,,,,,,,,,,,,,,,,,,,,,,,,,,,,,,,,,,,,,,,,4.0,2.1840546999592334,528.6244900000747,None,528.6244900000747,None,None,528.6244900000747,None,,,,,,,,,,,,,,,,,,,,,,,,,,,,,,,,,,,,,,,,,,,,,77,001,2022-10-06_13h09.40.129,test9,2022.1.4,60.08485183033713,
,,,,,,32,I had difficulty remembering my feelings,,,,,,,,,,,,,,,,,,0,31,31,31,,,,,,,,,,,,,,,,,,,,,,,,,,,,,,,,,,,,,,,,,,,,,,,,,,,,,3.0,2.385349899996072,531.0490712999599,None,531.0490712999599,None,None,531.0490712999599,None,,,,,,,,,,,,,,,,,,,,,,,,,,,,,,,,,,,,,,,,,,,,,77,001,2022-10-06_13h09.40.129,test9,2022.1.4,60.08485183033713,
,,,,,,3,I had difficulty holding on to my thoughts,,,,,,,,,,,,,,,,,,0,32,32,2,,,,,,,,,,,,,,,,,,,,,,,,,,,,,,,,,,,,,,,,,,,,,,,,,,,,,2.0,4.131876799976453,533.6611465000315,None,533.6611465000315,None,None,533.6611465000315,None,,,,,,,,,,,,,,,,,,,,,,,,,,,,,,,,,,,,,,,,,,,,,77,001,2022-10-06_13h09.40.129,test9,2022.1.4,60.08485183033713,
,,,,,,6,I thought about people I like,,,,,,,,,,,,,,,,,,0,33,33,5,,,,,,,,,,,,,,,,,,,,,,,,,,,,,,,,,,,,,,,,,,,,,,,,,,,,,2.0,1.9052633000537753,538.0240746999625,None,538.0240746999625,None,None,538.0240746999625,None,,,,,,,,,,,,,,,,,,,,,,,,,,,,,,,,,,,,,,,,,,,,,77,001,2022-10-06_13h09.40.129,test9,2022.1.4,60.08485183033713,
,,,,,,24,I felt pain,,,,,,,,,,,,,,,,,,0,34,34,23,,,,,,,,,,,,,,,,,,,,,,,,,,,,,,,,,,,,,,,,,,,,,,,,,,,,,2.0,1.7504912000149488,540.167170300032,None,540.167170300032,None,None,540.167170300032,None,,,,,,,,,,,,,,,,,,,,,,,,,,,,,,,,,,,,,,,,,,,,,77,001,2022-10-06_13h09.40.129,test9,2022.1.4,60.08485183033713,
,,,,,,,,1,nBack1Cond.xlsx,111,6,0.2,0,None,1,1,,,,,,,,,,,,,0,0,0,0,0,0,0,0,,,,,,,,,,,,,,,,,,,,,,,,,,,,,,,,,,,,,,,,,,,,,,,,,,,,,,542.2078440999612,None,542.2078440999612,None,542.2078440999612,None,None,555.594690100057,None,555.594690100057,556.5947254999774,556.5782149999868,None,555.594690100057,None,555.594690100057,None,555.594690100057,None,555.594690100057,None,555.594690100057,None,555.594690100057,None,555.594690100057,None,555.594690100057,None,,,,,,,,,,,,,,,,77,001,2022-10-06_13h09.40.129,test9,2022.1.4,60.08485183033713,
,,,,,,,,1,nBack1Cond.xlsx,111,6,0.2,0,space,1,2,,,,,,,,,,,,,0,0,0,0,0,1,1,1,,,,,,,,,,,,,,,,,,,,,,,,,,,,,,,,,,,,,,,,,,,,,,,,,,,,,,,,,,,,space,557.584180100006,None,557.584180100006,558.5949834999628,558.5785266000312,None,557.584180100006,None,557.584180100006,None,557.584180100006,None,557.584180100006,None,557.584180100006,None,557.584180100006,None,557.584180100006,None,557.584180100006,None,0.5819546000566334,,,,,,,,,,,,,,,77,001,2022-10-06_13h09.40.129,test9,2022.1.4,60.08485183033713,
,,,,,,,,1,nBack1Cond.xlsx,111,2,0,0.2,None,1,3,,,,,,,,,,,,,0,0,0,0,0,2,2,2,,,,,,,,,,,,,,,,,,,,,,,,,,,,,,,,,,,,,,,,,,,,,,,,,,,,,,,,,,,,None,559.580963699962,None,559.580963699962,560.5947681000689,560.5782155999914,None,559.580963699962,None,559.580963699962,None,559.580963699962,None,559.580963699962,None,559.580963699962,None,559.580963699962,None,559.580963699962,None,559.580963699962,None,,,,,,,,,,,,,,,,77,001,2022-10-06_13h09.40.129,test9,2022.1.4,60.08485183033713,
,,,,,,,,1,nBack1Cond.xlsx,111,9,0.2,-0.2,None,1,4,,,,,,,,,,,,,0,0,0,0,0,3,3,3,,,,,,,,,,,,,,,,,,,,,,,,,,,,,,,,,,,,,,,,,,,,,,,,,,,,,,,,,,,,None,561.5818545999937,None,561.5818545999937,562.5948869000422,562.5780578000704,None,561.5818545999937,None,561.5818545999937,None,561.5818545999937,None,561.5818545999937,None,561.5818545999937,None,561.5818545999937,None,561.5818545999937,None,561.5818545999937,None,,,,,,,,,,,,,,,,77,001,2022-10-06_13h09.40.129,test9,2022.1.4,60.08485183033713,
,,,,,,,,1,nBack1Cond.xlsx,111,9,0.2,-0.2,space,1,5,,,,,,,,,,,,,0,0,0,0,0,4,4,4,,,,,,,,,,,,,,,,,,,,,,,,,,,,,,,,,,,,,,,,,,,,,,,,,,,,,,,,,,,,space,563.582207600004,None,563.582207600004,564.5948618999682,564.5782642000122,None,563.582207600004,None,563.582207600004,None,563.582207600004,None,563.582207600004,None,563.582207600004,None,563.582207600004,None,563.582207600004,None,563.582207600004,None,0.6637846999801695,,,,,,,,,,,,,,,77,001,2022-10-06_13h09.40.129,test9,2022.1.4,60.08485183033713,
,,,,,,,,1,nBack1Cond.xlsx,111,6,0.2,0,None,1,6,,,,,,,,,,,,,0,0,0,0,0,5,5,5,,,,,,,,,,,,,,,,,,,,,,,,,,,,,,,,,,,,,,,,,,,,,,,,,,,,,,,,,,,,None,565.5815599999623,None,565.5815599999623,566.5949536999688,566.5780164999887,None,565.5815599999623,None,565.5815599999623,None,565.5815599999623,None,565.5815599999623,None,565.5815599999623,None,565.5815599999623,None,565.5815599999623,None,565.5815599999623,None,,,,,,,,,,,,,,,,77,001,2022-10-06_13h09.40.129,test9,2022.1.4,60.08485183033713,
,,,,,,,,1,nBack1Cond.xlsx,111,4,-0.2,0,None,1,7,,,,,,,,,,,,,0,0,0,0,0,6,6,6,,,,,,,,,,,,,,,,,,,,,,,,,,,,,,,,,,,,,,,,,,,,,,,,,,,,,,,,,,,,None,567.5822204999859,None,567.5822204999859,568.594981500064,568.5782820000313,None,567.5822204999859,None,567.5822204999859,None,567.5822204999859,None,567.5822204999859,None,567.5822204999859,None,567.5822204999859,None,567.5822204999859,None,567.5822204999859,None,,,,,,,,,,,,,,,,77,001,2022-10-06_13h09.40.129,test9,2022.1.4,60.08485183033713,
,,,,,,,,1,nBack1Cond.xlsx,111,3,0.2,0.2,None,1,8,,,,,,,,,,,,,0,0,0,0,0,7,7,7,,,,,,,,,,,,,,,,,,,,,,,,,,,,,,,,,,,,,,,,,,,,,,,,,,,,,,,,,,,,None,569.5826151999645,None,569.5826151999645,570.594776700018,570.5782281999709,None,569.5826151999645,None,569.5826151999645,None,569.5826151999645,None,569.5826151999645,None,569.5826151999645,None,569.5826151999645,None,569.5826151999645,None,569.5826151999645,None,,,,,,,,,,,,,,,,77,001,2022-10-06_13h09.40.129,test9,2022.1.4,60.08485183033713,
,,,,,,,,1,nBack1Cond.xlsx,111,3,0.2,0.2,space,1,9,,,,,,,,,,,,,0,0,0,0,0,8,8,8,,,,,,,,,,,,,,,,,,,,,,,,,,,,,,,,,,,,,,,,,,,,,,,,,,,,,,,,,,,,space,571.5840982999653,None,571.5840982999653,572.5950179999927,572.5780053000199,None,571.5840982999653,None,571.5840982999653,None,571.5840982999653,None,571.5840982999653,None,571.5840982999653,None,571.5840982999653,None,571.5840982999653,None,571.5840982999653,None,0.7355948000913486,,,,,,,,,,,,,,,77,001,2022-10-06_13h09.40.129,test9,2022.1.4,60.08485183033713,
,,,,,,,,1,nBack1Cond.xlsx,111,8,0,-0.2,None,1,10,,,,,,,,,,,,,0,0,0,0,0,9,9,9,,,,,,,,,,,,,,,,,,,,,,,,,,,,,,,,,,,,,,,,,,,,,,,,,,,,,,,,,,,,None,573.5817835000344,None,573.5817835000344,574.5948534000199,574.5782803000184,None,573.5817835000344,None,573.5817835000344,None,573.5817835000344,None,573.5817835000344,None,573.5817835000344,None,573.5817835000344,None,573.5817835000344,None,573.5817835000344,None,,,,,,,,,,,,,,,,77,001,2022-10-06_13h09.40.129,test9,2022.1.4,60.08485183033713,
,,,,,,,,1,nBack1Cond.xlsx,111,1,-0.2,0.2,None,1,11,,,,,,,,,,,,,0,0,0,0,0,10,10,10,,,,,,,,,,,,,,,,,,,,,,,,,,,,,,,,,,,,,,,,,,,,,,,,,,,,,,,,,,,,None,575.5805931000505,None,575.5805931000505,576.5949787000427,576.5781858999981,None,575.5805931000505,None,575.5805931000505,None,575.5805931000505,None,575.5805931000505,None,575.5805931000505,None,575.5805931000505,None,575.5805931000505,None,575.5805931000505,None,,,,,,,,,,,,,,,,77,001,2022-10-06_13h09.40.129,test9,2022.1.4,60.08485183033713,
,,,,,,,,1,nBack1Cond.xlsx,111,2,0,0.2,None,1,12,,,,,,,,,,,,,0,0,0,0,0,11,11,11,,,,,,,,,,,,,,,,,,,,,,,,,,,,,,,,,,,,,,,,,,,,,,,,,,,,,,,,,,,,None,577.5826154999668,None,577.5826154999668,578.5948886000551,578.5782665000297,None,577.5826154999668,None,577.5826154999668,None,577.5826154999668,None,577.5826154999668,None,577.5826154999668,None,577.5826154999668,None,577.5826154999668,None,577.5826154999668,None,,,,,,,,,,,,,,,,77,001,2022-10-06_13h09.40.129,test9,2022.1.4,60.08485183033713,
,,,,,,,,1,nBack1Cond.xlsx,111,4,-0.2,0,None,1,13,,,,,,,,,,,,,0,0,0,0,0,12,12,12,,,,,,,,,,,,,,,,,,,,,,,,,,,,,,,,,,,,,,,,,,,,,,,,,,,,,,,,,,,,None,579.5808499000268,None,579.5808499000268,580.5948629999766,580.5780410000589,None,579.5808499000268,None,579.5808499000268,None,579.5808499000268,None,579.5808499000268,None,579.5808499000268,None,579.5808499000268,None,579.5808499000268,None,579.5808499000268,None,,,,,,,,,,,,,,,,77,001,2022-10-06_13h09.40.129,test9,2022.1.4,60.08485183033713,
,,,,,,,,1,nBack1Cond.xlsx,111,4,-0.2,0,space,1,14,,,,,,,,,,,,,0,0,0,0,0,13,13,13,,,,,,,,,,,,,,,,,,,,,,,,,,,,,,,,,,,,,,,,,,,,,,,,,,,,,,,,,,,,space,581.5818041000748,None,581.5818041000748,582.5948454999598,582.5782052000286,None,581.5818041000748,None,581.5818041000748,None,581.5818041000748,None,581.5818041000748,None,581.5818041000748,None,581.5818041000748,None,581.5818041000748,None,581.5818041000748,None,0.7838838999159634,,,,,,,,,,,,,,,77,001,2022-10-06_13h09.40.129,test9,2022.1.4,60.08485183033713,
,,,,,,,,1,nBack1Cond.xlsx,111,8,0,-0.2,None,1,15,,,,,,,,,,,,,0,0,0,0,0,14,14,14,,,,,,,,,,,,,,,,,,,,,,,,,,,,,,,,,,,,,,,,,,,,,,,,,,,,,,,,,,,,None,583.5829118000111,None,583.5829118000111,584.5949695999734,584.578445399995,None,583.5829118000111,None,583.5829118000111,None,583.5829118000111,None,583.5829118000111,None,583.5829118000111,None,583.5829118000111,None,583.5829118000111,None,583.5829118000111,None,,,,,,,,,,,,,,,,77,001,2022-10-06_13h09.40.129,test9,2022.1.4,60.08485183033713,
,,,,,,,,1,nBack1Cond.xlsx,111,5,0,0,None,1,16,,,,,,,,,,,,,0,0,0,0,0,15,15,15,,,,,,,,,,,,,,,,,,,,,,,,,,,,,,,,,,,,,,,,,,,,,,,,,,,,,,,,,,,,None,585.5818587000249,None,585.5818587000249,586.5946913000662,586.5781934000552,None,585.5818587000249,None,585.5818587000249,None,585.5818587000249,None,585.5818587000249,None,585.5818587000249,None,585.5818587000249,None,585.5818587000249,None,585.5818587000249,None,,,,,,,,,,,,,,,,77,001,2022-10-06_13h09.40.129,test9,2022.1.4,60.08485183033713,
,,,,,,,,1,nBack1Cond.xlsx,111,5,0,0,space,1,17,,,,,,,,,,,,,0,0,0,0,0,16,16,16,,,,,,,,,,,,,,,,,,,,,,,,,,,,,,,,,,,,,,,,,,,,,,,,,,,,,,,,,,,,space,587.5826768999686,None,587.5826768999686,588.5949837999651,588.5781541999895,None,587.5826768999686,None,587.5826768999686,None,587.5826768999686,None,587.5826768999686,None,587.5826768999686,None,587.5826768999686,None,587.5826768999686,None,587.5826768999686,None,0.8549731000093743,,,,,,,,,,,,,,,77,001,2022-10-06_13h09.40.129,test9,2022.1.4,60.08485183033713,
,,,,,,,,1,nBack1Cond.xlsx,111,1,-0.2,0.2,None,1,18,,,,,,,,,,,,,0,0,0,0,0,17,17,17,,,,,,,,,,,,,,,,,,,,,,,,,,,,,,,,,,,,,,,,,,,,,,,,,,,,,,,,,,,,None,589.582703400054,None,589.582703400054,590.5950677000219,590.5783049999736,None,589.582703400054,None,589.582703400054,None,589.582703400054,None,589.582703400054,None,589.582703400054,None,589.582703400054,None,589.582703400054,None,589.582703400054,None,,,,,,,,,,,,,,,,77,001,2022-10-06_13h09.40.129,test9,2022.1.4,60.08485183033713,
,,,,,,,,1,nBack1Cond.xlsx,111,3,0.2,0.2,None,1,19,,,,,,,,,,,,,0,0,0,0,0,18,18,18,,,,,,,,,,,,,,,,,,,,,,,,,,,,,,,,,,,,,,,,,,,,,,,,,,,,,,,,,,,,None,591.5806487000082,None,591.5806487000082,592.594843500061,592.5782329000067,None,591.5806487000082,None,591.5806487000082,None,591.5806487000082,None,591.5806487000082,None,591.5806487000082,None,591.5806487000082,None,591.5806487000082,None,591.5806487000082,None,,,,,,,,,,,,,,,,77,001,2022-10-06_13h09.40.129,test9,2022.1.4,60.08485183033713,
,,,,,,,,1,nBack1Cond.xlsx,111,6,0.2,0,None,1,20,,,,,,,,,,,,,0,0,0,0,0,19,19,19,,,,,,,,,,,,,,,,,,,,,,,,,,,,,,,,,,,,,,,,,,,,,,,,,,,,,,,,,,,,None,593.5825754000107,None,593.5825754000107,594.594691400067,594.578079400002,None,593.5825754000107,None,593.5825754000107,None,593.5825754000107,None,593.5825754000107,None,593.5825754000107,None,593.5825754000107,None,593.5825754000107,None,593.5825754000107,None,,,,,,,,,,,,,,,,77,001,2022-10-06_13h09.40.129,test9,2022.1.4,60.08485183033713,
,,,,,,,,1,nBack1Cond.xlsx,111,1,-0.2,0.2,None,1,21,,,,,,,,,,,,,0,0,0,0,0,20,20,20,,,,,,,,,,,,,,,,,,,,,,,,,,,,,,,,,,,,,,,,,,,,,,,,,,,,,,,,,,,,None,595.5812866999768,None,595.5812866999768,596.5950054000132,596.5781766000437,None,595.5812866999768,None,595.5812866999768,None,595.5812866999768,None,595.5812866999768,None,595.5812866999768,None,595.5812866999768,None,595.5812866999768,None,595.5812866999768,None,,,,,,,,,,,,,,,,77,001,2022-10-06_13h09.40.129,test9,2022.1.4,60.08485183033713,
,,,,,,,,1,nBack1Cond.xlsx,111,1,-0.2,0.2,space,1,22,,,,,,,,,,,,,0,0,0,0,0,21,21,21,,,,,,,,,,,,,,,,,,,,,,,,,,,,,,,,,,,,,,,,,,,,,,,,,,,,,,,,,,,,space,597.5812234999612,None,597.5812234999612,598.5948634999804,598.5781629000558,None,597.5812234999612,None,597.5812234999612,None,597.5812234999612,None,597.5812234999612,None,597.5812234999612,None,597.5812234999612,None,597.5812234999612,None,597.5812234999612,None,0.7203711000038311,,,,,,,,,,,,,,,77,001,2022-10-06_13h09.40.129,test9,2022.1.4,60.08485183033713,
,,,,,,,,1,nBack1Cond.xlsx,111,1,-0.2,0.2,space,1,23,,,,,,,,,,,,,0,0,0,0,0,22,22,22,,,,,,,,,,,,,,,,,,,,,,,,,,,,,,,,,,,,,,,,,,,,,,,,,,,,,,,,,,,,space,599.5828302999726,None,599.5828302999726,600.5949958000565,600.5779930000426,None,599.5828302999726,None,599.5828302999726,None,599.5828302999726,None,599.5828302999726,None,599.5828302999726,None,599.5828302999726,None,599.5828302999726,None,599.5828302999726,None,0.7595827999757603,,,,,,,,,,,,,,,77,001,2022-10-06_13h09.40.129,test9,2022.1.4,60.08485183033713,
,,,,,,,,1,nBack1Cond.xlsx,111,3,0.2,0.2,None,1,24,,,,,,,,,,,,,0,0,0,0,0,23,23,23,,,,,,,,,,,,,,,,,,,,,,,,,,,,,,,,,,,,,,,,,,,,,,,,,,,,,,,,,,,,None,601.5819227000466,None,601.5819227000466,602.5948638999835,602.5781486000633,None,601.5819227000466,None,601.5819227000466,None,601.5819227000466,None,601.5819227000466,None,601.5819227000466,None,601.5819227000466,None,601.5819227000466,None,601.5819227000466,None,,,,,,,,,,,,,,,,77,001,2022-10-06_13h09.40.129,test9,2022.1.4,60.08485183033713,
,,,,,,,,1,nBack1Cond.xlsx,111,2,0,0.2,None,1,25,,,,,,,,,,,,,0,0,0,0,0,24,24,24,,,,,,,,,,,,,,,,,,,,,,,,,,,,,,,,,,,,,,,,,,,,,,,,,,,,,,,,,,,,None,603.5811380000087,None,603.5811380000087,604.5945916000055,604.5783854000038,None,603.5811380000087,None,603.5811380000087,None,603.5811380000087,None,603.5811380000087,None,603.5811380000087,None,603.5811380000087,None,603.5811380000087,None,603.5811380000087,None,,,,,,,,,,,,,,,,77,001,2022-10-06_13h09.40.129,test9,2022.1.4,60.08485183033713,
,,,,,,,,1,nBack1Cond.xlsx,111,1,-0.2,0.2,None,1,26,,,,,,,,,,,,,0,0,0,0,0,25,25,25,,,,,,,,,,,,,,,,,,,,,,,,,,,,,,,,,,,,,,,,,,,,,,,,,,,,,,,,,,,,None,605.5819503000239,None,605.5819503000239,606.5949836999644,606.578418500023,None,605.5819503000239,None,605.5819503000239,None,605.5819503000239,None,605.5819503000239,None,605.5819503000239,None,605.5819503000239,None,605.5819503000239,None,605.5819503000239,None,,,,,,,,,,,,,,,,77,001,2022-10-06_13h09.40.129,test9,2022.1.4,60.08485183033713,
,,,,,,,,1,nBack1Cond.xlsx,111,7,-0.2,-0.2,None,1,27,,,,,,,,,,,,,0,0,0,0,0,26,26,26,,,,,,,,,,,,,,,,,,,,,,,,,,,,,,,,,,,,,,,,,,,,,,,,,,,,,,,,,,,,None,607.5813644999871,None,607.5813644999871,608.5949511000654,608.5780724000651,None,607.5813644999871,None,607.5813644999871,None,607.5813644999871,None,607.5813644999871,None,607.5813644999871,None,607.5813644999871,None,607.5813644999871,None,607.5813644999871,None,,,,,,,,,,,,,,,,77,001,2022-10-06_13h09.40.129,test9,2022.1.4,60.08485183033713,
,,,,,,,,1,nBack1Cond.xlsx,111,7,-0.2,-0.2,space,1,28,,,,,,,,,,,,,0,0,0,0,0,27,27,27,,,,,,,,,,,,,,,,,,,,,,,,,,,,,,,,,,,,,,,,,,,,,,,,,,,,,,,,,,,,space,609.5813077000203,None,609.5813077000203,610.5948001999641,610.5782981000375,None,609.5813077000203,None,609.5813077000203,None,609.5813077000203,None,609.5813077000203,None,609.5813077000203,None,609.5813077000203,None,609.5813077000203,None,609.5813077000203,None,0.7522007999941707,,,,,,,,,,,,,,,77,001,2022-10-06_13h09.40.129,test9,2022.1.4,60.08485183033713,
,,,,,,,,1,nBack1Cond.xlsx,111,2,0,0.2,None,1,29,,,,,,,,,,,,,0,0,0,0,0,28,28,28,,,,,,,,,,,,,,,,,,,,,,,,,,,,,,,,,,,,,,,,,,,,,,,,,,,,,,,,,,,,None,611.5828127000714,None,611.5828127000714,612.5948738000588,612.5781409000047,None,611.5828127000714,None,611.5828127000714,None,611.5828127000714,None,611.5828127000714,None,611.5828127000714,None,611.5828127000714,None,611.5828127000714,None,611.5828127000714,None,,,,,,,,,,,,,,,,77,001,2022-10-06_13h09.40.129,test9,2022.1.4,60.08485183033713,
,,,,,,,,1,nBack1Cond.xlsx,111,6,0.2,0,None,1,30,,,,,,,,,,,,,0,0,0,0,0,29,29,29,,,,,,,,,,,,,,,,,,,,,,,,,,,,,,,,,,,,,,,,,,,,,,,,,,,,,,,,,,,,None,613.580316400039,None,613.580316400039,614.5948848000262,614.578016399988,None,613.580316400039,None,613.580316400039,None,613.580316400039,None,613.580316400039,None,613.580316400039,None,613.580316400039,None,613.580316400039,None,613.580316400039,None,,,,,,,,,,,,,,,,77,001,2022-10-06_13h09.40.129,test9,2022.1.4,60.08485183033713,
,,,,,,,,1,nBack1Cond.xlsx,111,4,-0.2,0,None,1,31,,,,,,,,,,,,,0,0,0,0,0,30,30,30,,,,,,,,,,,,,,,,,,,,,,,,,,,,,,,,,,,,,,,,,,,,,,,,,,,,,,,,,,,,None,615.5838659000583,None,615.5838659000583,616.5946257000323,616.5782975000329,None,615.5838659000583,None,615.5838659000583,None,615.5838659000583,None,615.5838659000583,None,615.5838659000583,None,615.5838659000583,None,615.5838659000583,None,615.5838659000583,None,,,,,,,,,,,,,,,,77,001,2022-10-06_13h09.40.129,test9,2022.1.4,60.08485183033713,
,,,,,,,,1,nBack1Cond.xlsx,111,4,-0.2,0,space,1,32,,,,,,,,,,,,,0,0,0,0,0,31,31,31,,,,,,,,,,,,,,,,,,,,,,,,,,,,,,,,,,,,,,,,,,,,,,,,,,,,,,,,,,,,space,617.5819578999653,None,617.5819578999653,618.59482940007,618.5779930000426,None,617.5819578999653,None,617.5819578999653,None,617.5819578999653,None,617.5819578999653,None,617.5819578999653,None,617.5819578999653,None,617.5819578999653,None,617.5819578999653,None,0.8642972999950871,,,,,,,,,,,,,,,77,001,2022-10-06_13h09.40.129,test9,2022.1.4,60.08485183033713,
,,,,,,,,1,nBack1Cond.xlsx,111,2,0,0.2,None,1,33,,,,,,,,,,,,,0,0,0,0,0,32,32,32,,,,,,,,,,,,,,,,,,,,,,,,,,,,,,,,,,,,,,,,,,,,,,,,,,,,,,,,,,,,None,619.5817626999924,None,619.5817626999924,620.5948157999665,620.5780272000702,None,619.5817626999924,None,619.5817626999924,None,619.5817626999924,None,619.5817626999924,None,619.5817626999924,None,619.5817626999924,None,619.5817626999924,None,619.5817626999924,None,,,,,,,,,,,,,,,,77,001,2022-10-06_13h09.40.129,test9,2022.1.4,60.08485183033713,
,,,,,,,,1,nBack1Cond.xlsx,111,9,0.2,-0.2,None,1,34,,,,,,,,,,,,,0,0,0,0,0,33,33,33,,,,,,,,,,,,,,,,,,,,,,,,,,,,,,,,,,,,,,,,,,,,,,,,,,,,,,,,,,,,None,621.5825877999887,None,621.5825877999887,622.5946997000137,622.5778704000404,None,621.5825877999887,None,621.5825877999887,None,621.5825877999887,None,621.5825877999887,None,621.5825877999887,None,621.5825877999887,None,621.5825877999887,None,621.5825877999887,None,,,,,,,,,,,,,,,,77,001,2022-10-06_13h09.40.129,test9,2022.1.4,60.08485183033713,
,,,,,,,,1,nBack1Cond.xlsx,111,9,0.2,-0.2,space,1,35,,,,,,,,,,,,,0,0,0,0,0,34,34,34,,,,,,,,,,,,,,,,,,,,,,,,,,,,,,,,,,,,,,,,,,,,,,,,,,,,,,,,,,,,space,623.5815492999973,None,623.5815492999973,624.5948062000098,624.5781513999682,None,623.5815492999973,None,623.5815492999973,None,623.5815492999973,None,623.5815492999973,None,623.5815492999973,None,623.5815492999973,None,623.5815492999973,None,623.5815492999973,None,0.7614361000014469,,,,,,,,,,,,,,,77,001,2022-10-06_13h09.40.129,test9,2022.1.4,60.08485183033713,
,,,,,,,,1,nBack1Cond.xlsx,111,3,0.2,0.2,None,1,36,,,,,,,,,,,,,0,0,0,0,0,35,35,35,,,,,,,,,,,,,,,,,,,,,,,,,,,,,,,,,,,,,,,,,,,,,,,,,,,,,,,,,,,,None,625.5823456000071,None,625.5823456000071,626.5949129000073,626.5781453000382,None,625.5823456000071,None,625.5823456000071,None,625.5823456000071,None,625.5823456000071,None,625.5823456000071,None,625.5823456000071,None,625.5823456000071,None,625.5823456000071,None,,,,,,,,,,,,,,,,77,001,2022-10-06_13h09.40.129,test9,2022.1.4,60.08485183033713,
,,,,,,,,1,nBack1Cond.xlsx,111,7,-0.2,-0.2,None,1,37,,,,,,,,,,,,,0,0,0,0,0,36,36,36,,,,,,,,,,,,,,,,,,,,,,,,,,,,,,,,,,,,,,,,,,,,,,,,,,,,,,,,,,,,None,627.5804070000304,None,627.5804070000304,628.594784499961,628.5779307000339,None,627.5804070000304,None,627.5804070000304,None,627.5804070000304,None,627.5804070000304,None,627.5804070000304,None,627.5804070000304,None,627.5804070000304,None,627.5804070000304,None,,,,,,,,,,,,,,,,77,001,2022-10-06_13h09.40.129,test9,2022.1.4,60.08485183033713,
,,,,,,,,1,nBack1Cond.xlsx,111,7,-0.2,-0.2,space,1,38,,,,,,,,,,,,,0,0,0,0,0,37,37,37,,,,,,,,,,,,,,,,,,,,,,,,,,,,,,,,,,,,,,,,,,,,,,,,,,,,,,,,,,,,space,629.581982600037,None,629.581982600037,630.5947842999594,630.577931900043,None,629.581982600037,None,629.581982600037,None,629.581982600037,None,629.581982600037,None,629.581982600037,None,629.581982600037,None,629.581982600037,None,629.581982600037,None,0.7767865000059828,,,,,,,,,,,,,,,77,001,2022-10-06_13h09.40.129,test9,2022.1.4,60.08485183033713,
,,,,,,,,1,nBack1Cond.xlsx,111,7,-0.2,-0.2,space,1,39,,,,,,,,,,,,,0,0,0,0,0,38,38,38,,,,,,,,,,,,,,,,,,,,,,,,,,,,,,,,,,,,,,,,,,,,,,,,,,,,,,,,,,,,space,631.5819651000202,None,631.5819651000202,632.5948938999791,632.5780288999667,None,631.5819651000202,None,631.5819651000202,None,631.5819651000202,None,631.5819651000202,None,631.5819651000202,None,631.5819651000202,None,631.5819651000202,None,631.5819651000202,None,0.815411200048402,,,,,,,,,,,,,,,77,001,2022-10-06_13h09.40.129,test9,2022.1.4,60.08485183033713,
,,,,,,,,1,nBack1Cond.xlsx,111,6,0.2,0,None,1,40,,,,,,,,,,,,,0,0,0,0,0,39,39,39,,,,,,,,,,,,,,,,,,,,,,,,,,,,,,,,,,,,,,,,,,,,,,,,,,,,,,,,,,,,None,633.5806529000401,None,633.5806529000401,634.5948476999765,634.5782532000449,None,633.5806529000401,None,633.5806529000401,None,633.5806529000401,None,633.5806529000401,None,633.5806529000401,None,633.5806529000401,None,633.5806529000401,None,633.5806529000401,None,,,,,,,,,,,,,,,,77,001,2022-10-06_13h09.40.129,test9,2022.1.4,60.08485183033713,
,,,,,,,,1,nBack1Cond.xlsx,111,6,0.2,0,space,1,41,,,,,,,,,,,,,0,0,0,0,0,40,40,40,,,,,,,,,,,,,,,,,,,,,,,,,,,,,,,,,,,,,,,,,,,,,,,,,,,,,,,,,,,,space,635.5828379000304,None,635.5828379000304,636.5948058000067,636.5781346000731,None,635.5828379000304,None,635.5828379000304,None,635.5828379000304,None,635.5828379000304,None,635.5828379000304,None,635.5828379000304,None,635.5828379000304,None,635.5828379000304,None,0.7827314999885857,,,,,,,,,,,,,,,77,001,2022-10-06_13h09.40.129,test9,2022.1.4,60.08485183033713,
,,,,,,,,1,nBack1Cond.xlsx,111,1,-0.2,0.2,None,1,42,,,,,,,,,,,,,0,0,0,0,0,41,41,41,,,,,,,,,,,,,,,,,,,,,,,,,,,,,,,,,,,,,,,,,,,,,,,,,,,,,,,,,,,,None,637.5821558999596,None,637.5821558999596,638.5950328999897,638.5781889000209,None,637.5821558999596,None,637.5821558999596,None,637.5821558999596,None,637.5821558999596,None,637.5821558999596,None,637.5821558999596,None,637.5821558999596,None,637.5821558999596,None,,,,,,,,,,,,,,,,77,001,2022-10-06_13h09.40.129,test9,2022.1.4,60.08485183033713,
,,,,,,,,1,nBack1Cond.xlsx,111,5,0,0,None,1,43,,,,,,,,,,,,,0,0,0,0,0,42,42,42,,,,,,,,,,,,,,,,,,,,,,,,,,,,,,,,,,,,,,,,,,,,,,,,,,,,,,,,,,,,None,639.5819455999881,None,639.5819455999881,640.5949406999862,640.5780628999928,None,639.5819455999881,None,639.5819455999881,None,639.5819455999881,None,639.5819455999881,None,639.5819455999881,None,639.5819455999881,None,639.5819455999881,None,639.5819455999881,None,,,,,,,,,,,,,,,,77,001,2022-10-06_13h09.40.129,test9,2022.1.4,60.08485183033713,
,,,,,,,,1,nBack1Cond.xlsx,111,3,0.2,0.2,None,1,44,,,,,,,,,,,,,0,0,0,0,0,43,43,43,,,,,,,,,,,,,,,,,,,,,,,,,,,,,,,,,,,,,,,,,,,,,,,,,,,,,,,,,,,,None,641.5830481000012,None,641.5830481000012,642.5947972000577,642.578203800018,None,641.5830481000012,None,641.5830481000012,None,641.5830481000012,None,641.5830481000012,None,641.5830481000012,None,641.5830481000012,None,641.5830481000012,None,641.5830481000012,None,,,,,,,,,,,,,,,,77,001,2022-10-06_13h09.40.129,test9,2022.1.4,60.08485183033713,
,,,,,,,,1,nBack1Cond.xlsx,111,1,-0.2,0.2,None,1,45,,,,,,,,,,,,,0,0,0,0,0,44,44,44,,,,,,,,,,,,,,,,,,,,,,,,,,,,,,,,,,,,,,,,,,,,,,,,,,,,,,,,,,,,None,643.5804948000005,None,643.5804948000005,644.5947403999744,644.5781959000742,None,643.5804948000005,None,643.5804948000005,None,643.5804948000005,None,643.5804948000005,None,643.5804948000005,None,643.5804948000005,None,643.5804948000005,None,643.5804948000005,None,,,,,,,,,,,,,,,,77,001,2022-10-06_13h09.40.129,test9,2022.1.4,60.08485183033713,
,,,,,,,,1,nBack1Cond.xlsx,111,7,-0.2,-0.2,None,1,46,,,,,,,,,,,,,0,0,0,0,0,45,45,45,,,,,,,,,,,,,,,,,,,,,,,,,,,,,,,,,,,,,,,,,,,,,,,,,,,,,,,,,,,,None,645.5825365000637,None,645.5825365000637,646.5946503999876,646.5781284000259,None,645.5825365000637,None,645.5825365000637,None,645.5825365000637,None,645.5825365000637,None,645.5825365000637,None,645.5825365000637,None,645.5825365000637,None,645.5825365000637,None,,,,,,,,,,,,,,,,77,001,2022-10-06_13h09.40.129,test9,2022.1.4,60.08485183033713,
,,,,,,,,1,nBack1Cond.xlsx,111,3,0.2,0.2,None,1,47,,,,,,,,,,,,,0,0,0,0,0,46,46,46,,,,,,,,,,,,,,,,,,,,,,,,,,,,,,,,,,,,,,,,,,,,,,,,,,,,,,,,,,,,None,647.5815546000376,None,647.5815546000376,648.5948655999964,648.5781835999805,None,647.5815546000376,None,647.5815546000376,None,647.5815546000376,None,647.5815546000376,None,647.5815546000376,None,647.5815546000376,None,647.5815546000376,None,647.5815546000376,None,,,,,,,,,,,,,,,,77,001,2022-10-06_13h09.40.129,test9,2022.1.4,60.08485183033713,
,,,,,,,,1,nBack1Cond.xlsx,111,3,0.2,0.2,space,1,48,,,,,,,,,,,,,0,0,0,0,0,47,47,47,,,,,,,,,,,,,,,,,,,,,,,,,,,,,,,,,,,,,,,,,,,,,,,,,,,,,,,,,,,,space,649.5833244000096,None,649.5833244000096,650.5948337999871,650.5781683999812,None,649.5833244000096,None,649.5833244000096,None,649.5833244000096,None,649.5833244000096,None,649.5833244000096,None,649.5833244000096,None,649.5833244000096,None,649.5833244000096,None,0.9180622999556363,,,,,,,,,,,,,,,77,001,2022-10-06_13h09.40.129,test9,2022.1.4,60.08485183033713,
,,,,,,,,1,nBack1Cond.xlsx,111,9,0.2,-0.2,None,1,49,,,,,,,,,,,,,0,0,0,0,0,48,48,48,,,,,,,,,,,,,,,,,,,,,,,,,,,,,,,,,,,,,,,,,,,,,,,,,,,,,,,,,,,,None,651.5827382999705,None,651.5827382999705,652.5948651999934,652.578171000001,None,651.5827382999705,None,651.5827382999705,None,651.5827382999705,None,651.5827382999705,None,651.5827382999705,None,651.5827382999705,None,651.5827382999705,None,651.5827382999705,None,,,,,,,,,,,,,,,,77,001,2022-10-06_13h09.40.129,test9,2022.1.4,60.08485183033713,
,,,,,,,,1,nBack1Cond.xlsx,111,7,-0.2,-0.2,None,1,50,,,,,,,,,,,,,0,0,0,0,0,49,49,49,,,,,,,,,,,,,,,,,,,,,,,,,,,,,,,,,,,,,,,,,,,,,,,,,,,,,,,,,,,,None,653.582357199979,None,653.582357199979,654.5949086999753,654.578158600023,None,653.582357199979,None,653.582357199979,None,653.582357199979,None,653.582357199979,None,653.582357199979,None,653.582357199979,None,653.582357199979,None,653.582357199979,None,,,,,,,,,,,,,,,,77,001,2022-10-06_13h09.40.129,test9,2022.1.4,60.08485183033713,
,,,,,,,,1,nBack1Cond.xlsx,111,5,0,0,None,1,51,,,,,,,,,,,,,0,0,0,0,0,50,50,50,,,,,,,,,,,,,,,,,,,,,,,,,,,,,,,,,,,,,,,,,,,,,,,,,,,,,,,,,,,,None,655.5833998000016,None,655.5833998000016,656.5948730000528,656.5783118000254,None,655.5833998000016,None,655.5833998000016,None,655.5833998000016,None,655.5833998000016,None,655.5833998000016,None,655.5833998000016,None,655.5833998000016,None,655.5833998000016,None,,,,,,,,,,,,,,,,77,001,2022-10-06_13h09.40.129,test9,2022.1.4,60.08485183033713,
,,,,,,,,1,nBack1Cond.xlsx,111,8,0,-0.2,None,1,52,,,,,,,,,,,,,0,0,0,0,0,51,51,51,,,,,,,,,,,,,,,,,,,,,,,,,,,,,,,,,,,,,,,,,,,,,,,,,,,,,,,,,,,,None,657.5811443000566,None,657.5811443000566,658.5948251000373,658.5779259999981,None,657.5811443000566,None,657.5811443000566,None,657.5811443000566,None,657.5811443000566,None,657.5811443000566,None,657.5811443000566,None,657.5811443000566,None,657.5811443000566,None,,,,,,,,,,,,,,,,77,001,2022-10-06_13h09.40.129,test9,2022.1.4,60.08485183033713,
,,,,,,,,1,nBack1Cond.xlsx,111,8,0,-0.2,space,1,53,,,,,,,,,,,,,0,0,0,0,0,52,52,52,,,,,,,,,,,,,,,,,,,,,,,,,,,,,,,,,,,,,,,,,,,,,,,,,,,,,,,,,,,,space,659.5824012999656,None,659.5824012999656,660.5947805000469,660.5782372000394,None,659.5824012999656,None,659.5824012999656,None,659.5824012999656,None,659.5824012999656,None,659.5824012999656,None,659.5824012999656,None,659.5824012999656,None,659.5824012999656,None,0.8879566999385133,,,,,,,,,,,,,,,77,001,2022-10-06_13h09.40.129,test9,2022.1.4,60.08485183033713,
,,,,,,,,1,nBack1Cond.xlsx,111,7,-0.2,-0.2,None,1,54,,,,,,,,,,,,,0,0,0,0,0,53,53,53,,,,,,,,,,,,,,,,,,,,,,,,,,,,,,,,,,,,,,,,,,,,,,,,,,,,,,,,,,,,None,661.5811274000444,None,661.5811274000444,662.5948454999598,662.5781485000625,None,661.5811274000444,None,661.5811274000444,None,661.5811274000444,None,661.5811274000444,None,661.5811274000444,None,661.5811274000444,None,661.5811274000444,None,661.5811274000444,None,,,,,,,,,,,,,,,,77,001,2022-10-06_13h09.40.129,test9,2022.1.4,60.08485183033713,
,,,,,,,,1,nBack1Cond.xlsx,111,4,-0.2,0,None,1,55,,,,,,,,,,,,,0,0,0,0,0,54,54,54,,,,,,,,,,,,,,,,,,,,,,,,,,,,,,,,,,,,,,,,,,,,,,,,,,,,,,,,,,,,None,663.5813885000534,None,663.5813885000534,664.5945404999657,664.5781681999797,None,663.5813885000534,None,663.5813885000534,None,663.5813885000534,None,663.5813885000534,None,663.5813885000534,None,663.5813885000534,None,663.5813885000534,None,663.5813885000534,None,,,,,,,,,,,,,,,,77,001,2022-10-06_13h09.40.129,test9,2022.1.4,60.08485183033713,
,,,,,,,,1,nBack1Cond.xlsx,111,5,0,0,None,1,56,,,,,,,,,,,,,0,0,0,0,0,55,55,55,,,,,,,,,,,,,,,,,,,,,,,,,,,,,,,,,,,,,,,,,,,,,,,,,,,,,,,,,,,,None,665.5814812000608,None,665.5814812000608,666.5947698999662,666.5778419000562,None,665.5814812000608,None,665.5814812000608,None,665.5814812000608,None,665.5814812000608,None,665.5814812000608,None,665.5814812000608,None,665.5814812000608,None,665.5814812000608,None,,,,,,,,,,,,,,,,77,001,2022-10-06_13h09.40.129,test9,2022.1.4,60.08485183033713,
,,,,,,,,1,nBack1Cond.xlsx,111,5,0,0,space,1,57,,,,,,,,,,,,,0,0,0,0,0,56,56,56,,,,,,,,,,,,,,,,,,,,,,,,,,,,,,,,,,,,,,,,,,,,,,,,,,,,,,,,,,,,space,667.5808641000185,None,667.5808641000185,668.5947312000208,668.578043699963,None,667.5808641000185,None,667.5808641000185,None,667.5808641000185,None,667.5808641000185,None,667.5808641000185,None,667.5808641000185,None,667.5808641000185,None,667.5808641000185,None,0.8821275000227615,,,,,,,,,,,,,,,77,001,2022-10-06_13h09.40.129,test9,2022.1.4,60.08485183033713,
,,,,,,,,1,nBack1Cond.xlsx,111,2,0,0.2,None,1,58,,,,,,,,,,,,,0,0,0,0,0,57,57,57,,,,,,,,,,,,,,,,,,,,,,,,,,,,,,,,,,,,,,,,,,,,,,,,,,,,,,,,,,,,None,669.5812313000206,None,669.5812313000206,670.5945843000663,670.5782113999594,None,669.5812313000206,None,669.5812313000206,None,669.5812313000206,None,669.5812313000206,None,669.5812313000206,None,669.5812313000206,None,669.5812313000206,None,669.5812313000206,None,,,,,,,,,,,,,,,,77,001,2022-10-06_13h09.40.129,test9,2022.1.4,60.08485183033713,
,,,,,,,,1,nBack1Cond.xlsx,111,2,0,0.2,space,1,59,,,,,,,,,,,,,0,0,0,0,0,58,58,58,,,,,,,,,,,,,,,,,,,,,,,,,,,,,,,,,,,,,,,,,,,,,,,,,,,,,,,,,,,,space,671.5851636000443,None,671.5851636000443,672.5948473999742,672.5782405000646,None,671.5851636000443,None,671.5851636000443,None,671.5851636000443,None,671.5851636000443,None,671.5851636000443,None,671.5851636000443,None,671.5851636000443,None,671.5851636000443,None,0.726252399967052,,,,,,,,,,,,,,,77,001,2022-10-06_13h09.40.129,test9,2022.1.4,60.08485183033713,
,,,,,,,,1,nBack1Cond.xlsx,111,6,0.2,0,None,1,60,,,,,,,,,,,,,0,0,0,0,0,59,59,59,,,,,,,,,,,,,,,,,,,,,,,,,,,,,,,,,,,,,,,,,,,,,,,,,,,,,,,,,,,,None,673.5827410999918,None,673.5827410999918,674.5946291000582,674.5781834999798,None,673.5827410999918,None,673.5827410999918,None,673.5827410999918,None,673.5827410999918,None,673.5827410999918,None,673.5827410999918,None,673.5827410999918,None,673.5827410999918,None,,,,,,,,,,,,,,,,77,001,2022-10-06_13h09.40.129,test9,2022.1.4,60.08485183033713,
,,,,,,,,1,nBack1Cond.xlsx,111,2,0,0.2,None,1,61,,,,,,,,,,,,,0,0,0,0,0,60,60,60,,,,,,,,,,,,,,,,,,,,,,,,,,,,,,,,,,,,,,,,,,,,,,,,,,,,,,,,,,,,None,675.5848459000699,None,675.5848459000699,676.5947257999796,676.5781493000686,None,675.5848459000699,None,675.5848459000699,None,675.5848459000699,None,675.5848459000699,None,675.5848459000699,None,675.5848459000699,None,675.5848459000699,None,675.5848459000699,None,,,,,,,,,,,,,,,,77,001,2022-10-06_13h09.40.129,test9,2022.1.4,60.08485183033713,
,,,,,,,,1,nBack1Cond.xlsx,111,2,0,0.2,space,1,62,,,,,,,,,,,,,0,0,0,0,0,61,61,61,,,,,,,,,,,,,,,,,,,,,,,,,,,,,,,,,,,,,,,,,,,,,,,,,,,,,,,,,,,,space,677.5813740000594,None,677.5813740000594,678.5949529999634,678.5781509999651,None,677.5813740000594,None,677.5813740000594,None,677.5813740000594,None,677.5813740000594,None,677.5813740000594,None,677.5813740000594,None,677.5813740000594,None,677.5813740000594,None,0.784447000012733,,,,,,,,,,,,,,,77,001,2022-10-06_13h09.40.129,test9,2022.1.4,60.08485183033713,
,,,,,,,,1,nBack1Cond.xlsx,111,5,0,0,None,1,63,,,,,,,,,,,,,0,0,0,0,0,62,62,62,,,,,,,,,,,,,,,,,,,,,,,,,,,,,,,,,,,,,,,,,,,,,,,,,,,,,,,,,,,,None,679.5828512000153,None,679.5828512000153,680.5949229999678,680.5779057999607,None,679.5828512000153,None,679.5828512000153,None,679.5828512000153,None,679.5828512000153,None,679.5828512000153,None,679.5828512000153,None,679.5828512000153,None,679.5828512000153,None,,,,,,,,,,,,,,,,77,001,2022-10-06_13h09.40.129,test9,2022.1.4,60.08485183033713,
,,,,,,,,1,nBack1Cond.xlsx,111,5,0,0,space,1,64,,,,,,,,,,,,,0,0,0,0,0,63,63,63,,,,,,,,,,,,,,,,,,,,,,,,,,,,,,,,,,,,,,,,,,,,,,,,,,,,,,,,,,,,space,681.5816357000731,None,681.5816357000731,682.5944941999624,682.5780600999715,None,681.5816357000731,None,681.5816357000731,None,681.5816357000731,None,681.5816357000731,None,681.5816357000731,None,681.5816357000731,None,681.5816357000731,None,681.5816357000731,None,0.7767464999342337,,,,,,,,,,,,,,,77,001,2022-10-06_13h09.40.129,test9,2022.1.4,60.08485183033713,
,,,,,,,,1,nBack1Cond.xlsx,111,4,-0.2,0,None,1,65,,,,,,,,,,,,,0,0,0,0,0,64,64,64,,,,,,,,,,,,,,,,,,,,,,,,,,,,,,,,,,,,,,,,,,,,,,,,,,,,,,,,,,,,None,683.5831092000008,None,683.5831092000008,684.594485700014,684.578066600021,None,683.5831092000008,None,683.5831092000008,None,683.5831092000008,None,683.5831092000008,None,683.5831092000008,None,683.5831092000008,None,683.5831092000008,None,683.5831092000008,None,,,,,,,,,,,,,,,,77,001,2022-10-06_13h09.40.129,test9,2022.1.4,60.08485183033713,
,,,,,,,,1,nBack1Cond.xlsx,111,7,-0.2,-0.2,None,1,66,,,,,,,,,,,,,0,0,0,0,0,65,65,65,,,,,,,,,,,,,,,,,,,,,,,,,,,,,,,,,,,,,,,,,,,,,,,,,,,,,,,,,,,,None,685.5816316000419,None,685.5816316000419,686.5948146000737,686.5781554999994,None,685.5816316000419,None,685.5816316000419,None,685.5816316000419,None,685.5816316000419,None,685.5816316000419,None,685.5816316000419,None,685.5816316000419,None,685.5816316000419,None,,,,,,,,,,,,,,,,77,001,2022-10-06_13h09.40.129,test9,2022.1.4,60.08485183033713,
,,,,,,,,1,nBack1Cond.xlsx,111,8,0,-0.2,None,1,67,,,,,,,,,,,,,0,0,0,0,0,66,66,66,,,,,,,,,,,,,,,,,,,,,,,,,,,,,,,,,,,,,,,,,,,,,,,,,,,,,,,,,,,,None,687.5815138999606,None,687.5815138999606,688.5947972000577,688.5780247000512,None,687.5815138999606,None,687.5815138999606,None,687.5815138999606,None,687.5815138999606,None,687.5815138999606,None,687.5815138999606,None,687.5815138999606,None,687.5815138999606,None,,,,,,,,,,,,,,,,77,001,2022-10-06_13h09.40.129,test9,2022.1.4,60.08485183033713,
,,,,,,,,1,nBack1Cond.xlsx,111,8,0,-0.2,space,1,68,,,,,,,,,,,,,0,0,0,0,0,67,67,67,,,,,,,,,,,,,,,,,,,,,,,,,,,,,,,,,,,,,,,,,,,,,,,,,,,,,,,,,,,,space,689.583696500049,None,689.583696500049,690.5946792999748,690.577869300032,None,689.583696500049,None,689.583696500049,None,689.583696500049,None,689.583696500049,None,689.583696500049,None,689.583696500049,None,689.583696500049,None,689.583696500049,None,0.701834199950099,,,,,,,,,,,,,,,77,001,2022-10-06_13h09.40.129,test9,2022.1.4,60.08485183033713,
,,,,,,,,1,nBack1Cond.xlsx,111,5,0,0,None,1,69,,,,,,,,,,,,,0,0,0,0,0,68,68,68,,,,,,,,,,,,,,,,,,,,,,,,,,,,,,,,,,,,,,,,,,,,,,,,,,,,,,,,,,,,None,691.5806074000429,None,691.5806074000429,692.5948735000566,692.5781505999621,None,691.5806074000429,None,691.5806074000429,None,691.5806074000429,None,691.5806074000429,None,691.5806074000429,None,691.5806074000429,None,691.5806074000429,None,691.5806074000429,None,,,,,,,,,,,,,,,,77,001,2022-10-06_13h09.40.129,test9,2022.1.4,60.08485183033713,
,,,,,,,,1,nBack1Cond.xlsx,111,7,-0.2,-0.2,None,1,70,,,,,,,,,,,,,0,0,0,0,0,69,69,69,,,,,,,,,,,,,,,,,,,,,,,,,,,,,,,,,,,,,,,,,,,,,,,,,,,,,,,,,,,,None,693.5833809999749,None,693.5833809999749,694.5947070000693,694.578256900073,None,693.5833809999749,None,693.5833809999749,None,693.5833809999749,None,693.5833809999749,None,693.5833809999749,None,693.5833809999749,None,693.5833809999749,None,693.5833809999749,None,,,,,,,,,,,,,,,,77,001,2022-10-06_13h09.40.129,test9,2022.1.4,60.08485183033713,
,,,,,,,,1,nBack1Cond.xlsx,111,9,0.2,-0.2,None,1,71,,,,,,,,,,,,,0,0,0,0,0,70,70,70,,,,,,,,,,,,,,,,,,,,,,,,,,,,,,,,,,,,,,,,,,,,,,,,,,,,,,,,,,,,None,695.5814378999639,None,695.5814378999639,696.5945704999613,696.578117200057,None,695.5814378999639,None,695.5814378999639,None,695.5814378999639,None,695.5814378999639,None,695.5814378999639,None,695.5814378999639,None,695.5814378999639,None,695.5814378999639,None,,,,,,,,,,,,,,,,77,001,2022-10-06_13h09.40.129,test9,2022.1.4,60.08485183033713,
,,,,,,,,1,nBack1Cond.xlsx,111,3,0.2,0.2,None,1,72,,,,,,,,,,,,,0,0,0,0,0,71,71,71,,,,,,,,,,,,,,,,,,,,,,,,,,,,,,,,,,,,,,,,,,,,,,,,,,,,,,,,,,,,None,697.5807407000102,None,697.5807407000102,698.5947463000193,698.5780218000291,None,697.5807407000102,None,697.5807407000102,None,697.5807407000102,None,697.5807407000102,None,697.5807407000102,None,697.5807407000102,None,697.5807407000102,None,697.5807407000102,None,,,,,,,,,,,,,,,,77,001,2022-10-06_13h09.40.129,test9,2022.1.4,60.08485183033713,
,,,,,,,,1,nBack1Cond.xlsx,111,3,0.2,0.2,space,1,73,,,,,,,,,,,,,0,0,0,0,0,72,72,72,,,,,,,,,,,,,,,,,,,,,,,,,,,,,,,,,,,,,,,,,,,,,,,,,,,,,,,,,,,,space,699.5804551000474,None,699.5804551000474,700.5947198000504,700.5781206999673,None,699.5804551000474,None,699.5804551000474,None,699.5804551000474,None,699.5804551000474,None,699.5804551000474,None,699.5804551000474,None,699.5804551000474,None,699.5804551000474,None,0.7296006999677047,,,,,,,,,,,,,,,77,001,2022-10-06_13h09.40.129,test9,2022.1.4,60.08485183033713,
,,,,,,,,1,nBack1Cond.xlsx,111,7,-0.2,-0.2,None,1,74,,,,,,,,,,,,,0,0,0,0,0,73,73,73,,,,,,,,,,,,,,,,,,,,,,,,,,,,,,,,,,,,,,,,,,,,,,,,,,,,,,,,,,,,None,701.5829252999974,None,701.5829252999974,702.5949638000457,702.5781365999719,None,701.5829252999974,None,701.5829252999974,None,701.5829252999974,None,701.5829252999974,None,701.5829252999974,None,701.5829252999974,None,701.5829252999974,None,701.5829252999974,None,,,,,,,,,,,,,,,,77,001,2022-10-06_13h09.40.129,test9,2022.1.4,60.08485183033713,
,,,,,,,,1,nBack1Cond.xlsx,111,1,-0.2,0.2,None,1,75,,,,,,,,,,,,,0,0,0,0,0,74,74,74,,,,,,,,,,,,,,,,,,,,,,,,,,,,,,,,,,,,,,,,,,,,,,,,,,,,,,,,,,,,None,703.5828499000054,None,703.5828499000054,704.5947842999594,704.5780223000329,None,703.5828499000054,None,703.5828499000054,None,703.5828499000054,None,703.5828499000054,None,703.5828499000054,None,703.5828499000054,None,703.5828499000054,None,703.5828499000054,None,,,,,,,,,,,,,,,,77,001,2022-10-06_13h09.40.129,test9,2022.1.4,60.08485183033713,
,,,,,,,,1,nBack1Cond.xlsx,111,3,0.2,0.2,None,1,76,,,,,,,,,,,,,0,0,0,0,0,75,75,75,,,,,,,,,,,,,,,,,,,,,,,,,,,,,,,,,,,,,,,,,,,,,,,,,,,,,,,,,,,,None,705.5744690999854,None,705.5744690999854,706.5783751000417,706.5618986999616,707.5614416999742,705.5744690999854,None,705.5744690999854,None,705.5744690999854,None,705.5744690999854,None,705.5744690999854,None,705.5744690999854,None,705.5744690999854,None,705.5744690999854,None,,,,,,,,,,,,,,,,77,001,2022-10-06_13h09.40.129,test9,2022.1.4,60.08485183033713,
,,,,,,,,1,nBack1Cond.xlsx,111,5,0,0,None,1,77,,,,,,,,,,,,,0,0,0,0,0,76,76,76,,,,,,,,,,,,,,,,,,,,,,,,,,,,,,,,,,,,,,,,,,,,,,,,,,,,,,,,,,,,None,707.5815990000265,None,707.5815990000265,708.5946935999673,708.5781877000118,None,707.5815990000265,None,707.5815990000265,None,707.5815990000265,None,707.5815990000265,None,707.5815990000265,None,707.5815990000265,None,707.5815990000265,None,707.5815990000265,None,,,,,,,,,,,,,,,,77,001,2022-10-06_13h09.40.129,test9,2022.1.4,60.08485183033713,
,,,,,,,,1,nBack1Cond.xlsx,111,1,-0.2,0.2,None,1,78,,,,,,,,,,,,,0,0,0,0,0,77,77,77,,,,,,,,,,,,,,,,,,,,,,,,,,,,,,,,,,,,,,,,,,,,,,,,,,,,,,,,,,,,None,709.5811648999806,None,709.5811648999806,710.5946123000467,710.5780495000072,None,709.5811648999806,None,709.5811648999806,None,709.5811648999806,None,709.5811648999806,None,709.5811648999806,None,709.5811648999806,None,709.5811648999806,None,709.5811648999806,None,,,,,,,,,,,,,,,,77,001,2022-10-06_13h09.40.129,test9,2022.1.4,60.08485183033713,
,,,,,,,,1,nBack1Cond.xlsx,111,6,0.2,0,None,1,79,,,,,,,,,,,,,0,0,0,0,0,78,78,78,,,,,,,,,,,,,,,,,,,,,,,,,,,,,,,,,,,,,,,,,,,,,,,,,,,,,,,,,,,,None,711.5814801000524,None,711.5814801000524,712.5946634999709,712.5779889000114,None,711.5814801000524,None,711.5814801000524,None,711.5814801000524,None,711.5814801000524,None,711.5814801000524,None,711.5814801000524,None,711.5814801000524,None,711.5814801000524,None,,,,,,,,,,,,,,,,77,001,2022-10-06_13h09.40.129,test9,2022.1.4,60.08485183033713,
,,,,,,,,1,nBack1Cond.xlsx,111,6,0.2,0,space,1,80,,,,,,,,,,,,,0,0,0,0,0,79,79,79,,,,,,,,,,,,,,,,,,,,,,,,,,,,,,,,,,,,,,,,,,,,,,,,,,,,,,,,,,,,space,713.5809077000013,None,713.5809077000013,714.5947041000472,714.5781196999596,None,713.5809077000013,None,713.5809077000013,None,713.5809077000013,None,713.5809077000013,None,713.5809077000013,None,713.5809077000013,None,713.5809077000013,None,713.5809077000013,None,1.1293267000000924,,,,,,,,,,,,,,,77,001,2022-10-06_13h09.40.129,test9,2022.1.4,60.08485183033713,
,,,,,,,,1,nBack1Cond.xlsx,111,7,-0.2,-0.2,None,1,81,,,,,,,,,,,,,0,0,0,0,0,80,80,80,,,,,,,,,,,,,,,,,,,,,,,,,,,,,,,,,,,,,,,,,,,,,,,,,,,,,,,,,,,,None,715.5806235000491,None,715.5806235000491,716.5945658000419,716.578120399965,None,715.5806235000491,None,715.5806235000491,None,715.5806235000491,None,715.5806235000491,None,715.5806235000491,None,715.5806235000491,None,715.5806235000491,None,715.5806235000491,None,,,,,,,,,,,,,,,,77,001,2022-10-06_13h09.40.129,test9,2022.1.4,60.08485183033713,
,,,,,,,,1,nBack1Cond.xlsx,111,7,-0.2,-0.2,space,1,82,,,,,,,,,,,,,0,0,0,0,0,81,81,81,,,,,,,,,,,,,,,,,,,,,,,,,,,,,,,,,,,,,,,,,,,,,,,,,,,,,,,,,,,,None,717.5802006999729,None,717.5802006999729,718.5947110999841,718.578162400052,None,717.5802006999729,None,717.5802006999729,None,717.5802006999729,None,717.5802006999729,None,717.5802006999729,None,717.5802006999729,None,717.5802006999729,None,717.5802006999729,None,,,,,,,,,,,,,,,,77,001,2022-10-06_13h09.40.129,test9,2022.1.4,60.08485183033713,
,,,,,,,,1,nBack1Cond.xlsx,111,7,-0.2,-0.2,space,1,83,,,,,,,,,,,,,0,0,0,0,0,82,82,82,,,,,,,,,,,,,,,,,,,,,,,,,,,,,,,,,,,,,,,,,,,,,,,,,,,,,,,,,,,,space,719.5814179000445,None,719.5814179000445,720.594700000016,720.5781831999775,None,719.5814179000445,None,719.5814179000445,None,719.5814179000445,None,719.5814179000445,None,719.5814179000445,None,719.5814179000445,None,719.5814179000445,None,719.5814179000445,None,0.8094600000185892,,,,,,,,,,,,,,,77,001,2022-10-06_13h09.40.129,test9,2022.1.4,60.08485183033713,
,,,,,,,,1,nBack1Cond.xlsx,111,3,0.2,0.2,None,1,84,,,,,,,,,,,,,0,0,0,0,0,83,83,83,,,,,,,,,,,,,,,,,,,,,,,,,,,,,,,,,,,,,,,,,,,,,,,,,,,,,,,,,,,,None,721.5810077000642,None,721.5810077000642,722.5946512999944,722.5777952000499,None,721.5810077000642,None,721.5810077000642,None,721.5810077000642,None,721.5810077000642,None,721.5810077000642,None,721.5810077000642,None,721.5810077000642,None,721.5810077000642,None,,,,,,,,,,,,,,,,77,001,2022-10-06_13h09.40.129,test9,2022.1.4,60.08485183033713,
,,,,,,,,1,nBack1Cond.xlsx,111,9,0.2,-0.2,None,1,85,,,,,,,,,,,,,0,0,0,0,0,84,84,84,,,,,,,,,,,,,,,,,,,,,,,,,,,,,,,,,,,,,,,,,,,,,,,,,,,,,,,,,,,,None,723.5807947000721,None,723.5807947000721,724.5946717000334,724.578165300074,None,723.5807947000721,None,723.5807947000721,None,723.5807947000721,None,723.5807947000721,None,723.5807947000721,None,723.5807947000721,None,723.5807947000721,None,723.5807947000721,None,,,,,,,,,,,,,,,,77,001,2022-10-06_13h09.40.129,test9,2022.1.4,60.08485183033713,
,,,,,,,,1,nBack1Cond.xlsx,111,9,0.2,-0.2,space,1,86,,,,,,,,,,,,,0,0,0,0,0,85,85,85,,,,,,,,,,,,,,,,,,,,,,,,,,,,,,,,,,,,,,,,,,,,,,,,,,,,,,,,,,,,space,725.5820114000235,None,725.5820114000235,726.5945054000476,726.5779531999724,None,725.5820114000235,None,725.5820114000235,None,725.5820114000235,None,725.5820114000235,None,725.5820114000235,None,725.5820114000235,None,725.5820114000235,None,725.5820114000235,None,0.8150936999591067,,,,,,,,,,,,,,,77,001,2022-10-06_13h09.40.129,test9,2022.1.4,60.08485183033713,
,,,,,,,,1,nBack1Cond.xlsx,111,2,0,0.2,None,1,87,,,,,,,,,,,,,0,0,0,0,0,86,86,86,,,,,,,,,,,,,,,,,,,,,,,,,,,,,,,,,,,,,,,,,,,,,,,,,,,,,,,,,,,,None,727.5823994000675,None,727.5823994000675,728.5949121000012,728.5779810000677,None,727.5823994000675,None,727.5823994000675,None,727.5823994000675,None,727.5823994000675,None,727.5823994000675,None,727.5823994000675,None,727.5823994000675,None,727.5823994000675,None,,,,,,,,,,,,,,,,77,001,2022-10-06_13h09.40.129,test9,2022.1.4,60.08485183033713,
,,,,,,,,1,nBack1Cond.xlsx,111,4,-0.2,0,None,1,88,,,,,,,,,,,,,0,0,0,0,0,87,87,87,,,,,,,,,,,,,,,,,,,,,,,,,,,,,,,,,,,,,,,,,,,,,,,,,,,,,,,,,,,,None,729.5831550000003,None,729.5831550000003,730.5945572999772,730.5779069999699,None,729.5831550000003,None,729.5831550000003,None,729.5831550000003,None,729.5831550000003,None,729.5831550000003,None,729.5831550000003,None,729.5831550000003,None,729.5831550000003,None,,,,,,,,,,,,,,,,77,001,2022-10-06_13h09.40.129,test9,2022.1.4,60.08485183033713,
,,,,,,,,1,nBack1Cond.xlsx,111,4,-0.2,0,space,1,89,,,,,,,,,,,,,0,0,0,0,0,88,88,88,,,,,,,,,,,,,,,,,,,,,,,,,,,,,,,,,,,,,,,,,,,,,,,,,,,,,,,,,,,,space,731.5801219000714,None,731.5801219000714,732.5948077000212,732.5777519000694,None,731.5801219000714,None,731.5801219000714,None,731.5801219000714,None,731.5801219000714,None,731.5801219000714,None,731.5801219000714,None,731.5801219000714,None,731.5801219000714,None,0.8984095000196248,,,,,,,,,,,,,,,77,001,2022-10-06_13h09.40.129,test9,2022.1.4,60.08485183033713,
,,,,,,,,1,nBack1Cond.xlsx,111,6,0.2,0,None,1,90,,,,,,,,,,,,,0,0,0,0,0,89,89,89,,,,,,,,,,,,,,,,,,,,,,,,,,,,,,,,,,,,,,,,,,,,,,,,,,,,,,,,,,,,None,733.5818652000744,None,733.5818652000744,734.5947156000184,734.5781196999596,None,733.5818652000744,None,733.5818652000744,None,733.5818652000744,None,733.5818652000744,None,733.5818652000744,None,733.5818652000744,None,733.5818652000744,None,733.5818652000744,None,,,,,,,,,,,,,,,,77,001,2022-10-06_13h09.40.129,test9,2022.1.4,60.08485183033713,
,,,,,,,,1,nBack1Cond.xlsx,111,2,0,0.2,None,1,91,,,,,,,,,,,,,0,0,0,0,0,90,90,90,,,,,,,,,,,,,,,,,,,,,,,,,,,,,,,,,,,,,,,,,,,,,,,,,,,,,,,,,,,,None,735.5818225999828,None,735.5818225999828,736.5945694000693,736.5780072000343,None,735.5818225999828,None,735.5818225999828,None,735.5818225999828,None,735.5818225999828,None,735.5818225999828,None,735.5818225999828,None,735.5818225999828,None,735.5818225999828,None,,,,,,,,,,,,,,,,77,001,2022-10-06_13h09.40.129,test9,2022.1.4,60.08485183033713,
,,,,,,,,1,nBack1Cond.xlsx,111,7,-0.2,-0.2,None,1,92,,,,,,,,,,,,,0,0,0,0,0,91,91,91,,,,,,,,,,,,,,,,,,,,,,,,,,,,,,,,,,,,,,,,,,,,,,,,,,,,,,,,,,,,None,737.5820592000382,None,737.5820592000382,738.5944779000711,738.5780539000407,None,737.5820592000382,None,737.5820592000382,None,737.5820592000382,None,737.5820592000382,None,737.5820592000382,None,737.5820592000382,None,737.5820592000382,None,737.5820592000382,None,,,,,,,,,,,,,,,,77,001,2022-10-06_13h09.40.129,test9,2022.1.4,60.08485183033713,
,,,,,,,,1,nBack1Cond.xlsx,111,7,-0.2,-0.2,space,1,93,,,,,,,,,,,,,0,0,0,0,0,92,92,92,,,,,,,,,,,,,,,,,,,,,,,,,,,,,,,,,,,,,,,,,,,,,,,,,,,,,,,,,,,,space,739.5800170999719,None,739.5800170999719,740.5944832999958,740.577995800064,None,739.5800170999719,None,739.5800170999719,None,739.5800170999719,None,739.5800170999719,None,739.5800170999719,None,739.5800170999719,None,739.5800170999719,None,739.5800170999719,None,0.7454562999773771,,,,,,,,,,,,,,,77,001,2022-10-06_13h09.40.129,test9,2022.1.4,60.08485183033713,
,,,,,,,,1,nBack1Cond.xlsx,111,1,-0.2,0.2,None,1,94,,,,,,,,,,,,,0,0,0,0,0,93,93,93,,,,,,,,,,,,,,,,,,,,,,,,,,,,,,,,,,,,,,,,,,,,,,,,,,,,,,,,,,,,None,741.5810312000103,None,741.5810312000103,742.5944317000685,742.5779724000022,None,741.5810312000103,None,741.5810312000103,None,741.5810312000103,None,741.5810312000103,None,741.5810312000103,None,741.5810312000103,None,741.5810312000103,None,741.5810312000103,None,,,,,,,,,,,,,,,,77,001,2022-10-06_13h09.40.129,test9,2022.1.4,60.08485183033713,
,,,,,,,,1,nBack1Cond.xlsx,111,2,0,0.2,None,1,95,,,,,,,,,,,,,0,0,0,0,0,94,94,94,,,,,,,,,,,,,,,,,,,,,,,,,,,,,,,,,,,,,,,,,,,,,,,,,,,,,,,,,,,,None,743.5818537999876,None,743.5818537999876,744.5945949000306,744.577796000056,None,743.5818537999876,None,743.5818537999876,None,743.5818537999876,None,743.5818537999876,None,743.5818537999876,None,743.5818537999876,None,743.5818537999876,None,743.5818537999876,None,,,,,,,,,,,,,,,,77,001,2022-10-06_13h09.40.129,test9,2022.1.4,60.08485183033713,
,,,,,,,,1,nBack1Cond.xlsx,111,3,0.2,0.2,None,1,96,,,,,,,,,,,,,0,0,0,0,0,95,95,95,,,,,,,,,,,,,,,,,,,,,,,,,,,,,,,,,,,,,,,,,,,,,,,,,,,,,,,,,,,,None,745.5813971000025,None,745.5813971000025,746.5947432999965,746.5778437000699,None,745.5813971000025,None,745.5813971000025,None,745.5813971000025,None,745.5813971000025,None,745.5813971000025,None,745.5813971000025,None,745.5813971000025,None,745.5813971000025,None,,,,,,,,,,,,,,,,77,001,2022-10-06_13h09.40.129,test9,2022.1.4,60.08485183033713,
,,,,,,,,1,nBack1Cond.xlsx,111,1,-0.2,0.2,None,1,97,,,,,,,,,,,,,0,0,0,0,0,96,96,96,,,,,,,,,,,,,,,,,,,,,,,,,,,,,,,,,,,,,,,,,,,,,,,,,,,,,,,,,,,,None,747.5800249000313,None,747.5800249000313,748.5946291000582,748.5778598999605,None,747.5800249000313,None,747.5800249000313,None,747.5800249000313,None,747.5800249000313,None,747.5800249000313,None,747.5800249000313,None,747.5800249000313,None,747.5800249000313,None,,,,,,,,,,,,,,,,77,001,2022-10-06_13h09.40.129,test9,2022.1.4,60.08485183033713,
,,,,,,,,1,nBack1Cond.xlsx,111,1,-0.2,0.2,space,1,98,,,,,,,,,,,,,0,0,0,0,0,97,97,97,,,,,,,,,,,,,,,,,,,,,,,,,,,,,,,,,,,,,,,,,,,,,,,,,,,,,,,,,,,,space,749.5816531999735,None,749.5816531999735,750.5944020999596,750.5777929000324,None,749.5816531999735,None,749.5816531999735,None,749.5816531999735,None,749.5816531999735,None,749.5816531999735,None,749.5816531999735,None,749.5816531999735,None,749.5816531999735,None,0.8797021000646055,,,,,,,,,,,,,,,77,001,2022-10-06_13h09.40.129,test9,2022.1.4,60.08485183033713,
,,,,,,,,1,nBack1Cond.xlsx,111,1,-0.2,0.2,space,1,99,,,,,,,,,,,,,0,0,0,0,0,98,98,98,,,,,,,,,,,,,,,,,,,,,,,,,,,,,,,,,,,,,,,,,,,,,,,,,,,,,,,,,,,,space,751.5802573000547,None,751.5802573000547,752.5946590000531,752.5779253999935,None,751.5802573000547,None,751.5802573000547,None,751.5802573000547,None,751.5802573000547,None,751.5802573000547,None,751.5802573000547,None,751.5802573000547,None,751.5802573000547,None,0.8176638999721035,,,,,,,,,,,,,,,77,001,2022-10-06_13h09.40.129,test9,2022.1.4,60.08485183033713,
,,,,,,,,1,nBack1Cond.xlsx,111,6,0.2,0,None,1,100,,,,,,,,,,,,,0,0,0,0,0,99,99,99,,,,,,,,,,,,,,,,,,,,,,,,,,,,,,,,,,,,,,,,,,,,,,,,,,,,,,,,,,,,None,753.5817154999822,None,753.5817154999822,754.5948097000364,754.5778232000303,None,753.5817154999822,None,753.5817154999822,None,753.5817154999822,None,753.5817154999822,None,753.5817154999822,None,753.5817154999822,None,753.5817154999822,None,753.5817154999822,None,,,,,,,,,,,,,,,,77,001,2022-10-06_13h09.40.129,test9,2022.1.4,60.08485183033713,
,,,,,,,,1,nBack1Cond.xlsx,111,3,0.2,0.2,None,1,101,,,,,,,,,,,,,0,0,0,0,0,100,100,100,,,,,,,,,,,,,,,,,,,,,,,,,,,,,,,,,,,,,,,,,,,,,,,,,,,,,,,,,,,,None,755.5812212000601,None,755.5812212000601,756.5943805000279,756.5778006999753,None,755.5812212000601,None,755.5812212000601,None,755.5812212000601,None,755.5812212000601,None,755.5812212000601,None,755.5812212000601,None,755.5812212000601,None,755.5812212000601,None,,,,,,,,,,,,,,,,77,001,2022-10-06_13h09.40.129,test9,2022.1.4,60.08485183033713,
,,,,,,,,1,nBack1Cond.xlsx,111,1,-0.2,0.2,None,1,102,,,,,,,,,,,,,0,0,0,0,0,101,101,101,,,,,,,,,,,,,,,,,,,,,,,,,,,,,,,,,,,,,,,,,,,,,,,,,,,,,,,,,,,,None,757.5823477000231,None,757.5823477000231,758.5946217000019,758.5780726000667,None,757.5823477000231,None,757.5823477000231,None,757.5823477000231,None,757.5823477000231,None,757.5823477000231,None,757.5823477000231,None,757.5823477000231,None,757.5823477000231,None,,,,,,,,,,,,,,,,77,001,2022-10-06_13h09.40.129,test9,2022.1.4,60.08485183033713,
,,,,,,,,1,nBack1Cond.xlsx,111,5,0,0,None,1,103,,,,,,,,,,,,,0,0,0,0,0,102,102,102,,,,,,,,,,,,,,,,,,,,,,,,,,,,,,,,,,,,,,,,,,,,,,,,,,,,,,,,,,,,None,759.5828737000702,None,759.5828737000702,760.59464200004,760.5777003000258,None,759.5828737000702,None,759.5828737000702,None,759.5828737000702,None,759.5828737000702,None,759.5828737000702,None,759.5828737000702,None,759.5828737000702,None,759.5828737000702,None,,,,,,,,,,,,,,,,77,001,2022-10-06_13h09.40.129,test9,2022.1.4,60.08485183033713,
,,,,,,,,1,nBack1Cond.xlsx,111,5,0,0,space,1,104,,,,,,,,,,,,,0,0,0,0,0,103,103,103,,,,,,,,,,,,,,,,,,,,,,,,,,,,,,,,,,,,,,,,,,,,,,,,,,,,,,,,,,,,space,761.5803795000538,None,761.5803795000538,762.5948000999633,762.5778967000078,None,761.5803795000538,None,761.5803795000538,None,761.5803795000538,None,761.5803795000538,None,761.5803795000538,None,761.5803795000538,None,761.5803795000538,None,761.5803795000538,None,0.7618024999974295,,,,,,,,,,,,,,,77,001,2022-10-06_13h09.40.129,test9,2022.1.4,60.08485183033713,
,,,,,,,,1,nBack1Cond.xlsx,111,8,0,-0.2,None,1,105,,,,,,,,,,,,,0,0,0,0,0,104,104,104,,,,,,,,,,,,,,,,,,,,,,,,,,,,,,,,,,,,,,,,,,,,,,,,,,,,,,,,,,,,None,763.5819330000086,None,763.5819330000086,764.5946318999631,764.5780451999744,None,763.5819330000086,None,763.5819330000086,None,763.5819330000086,None,763.5819330000086,None,763.5819330000086,None,763.5819330000086,None,763.5819330000086,None,763.5819330000086,None,,,,,,,,,,,,,,,,77,001,2022-10-06_13h09.40.129,test9,2022.1.4,60.08485183033713,
,,,,,,,,1,nBack1Cond.xlsx,111,4,-0.2,0,None,1,106,,,,,,,,,,,,,0,0,0,0,0,105,105,105,,,,,,,,,,,,,,,,,,,,,,,,,,,,,,,,,,,,,,,,,,,,,,,,,,,,,,,,,,,,None,765.5826300999615,None,765.5826300999615,766.5945823000511,766.5780217000283,None,765.5826300999615,None,765.5826300999615,None,765.5826300999615,None,765.5826300999615,None,765.5826300999615,None,765.5826300999615,None,765.5826300999615,None,765.5826300999615,None,,,,,,,,,,,,,,,,77,001,2022-10-06_13h09.40.129,test9,2022.1.4,60.08485183033713,
,,,,,,,,1,nBack1Cond.xlsx,111,4,-0.2,0,space,1,107,,,,,,,,,,,,,0,0,0,0,0,106,106,106,,,,,,,,,,,,,,,,,,,,,,,,,,,,,,,,,,,,,,,,,,,,,,,,,,,,,,,,,,,,None,767.5823066000594,None,767.5823066000594,768.5946725000395,768.5781755000353,None,767.5823066000594,None,767.5823066000594,None,767.5823066000594,None,767.5823066000594,None,767.5823066000594,None,767.5823066000594,None,767.5823066000594,None,767.5823066000594,None,,,,,,,,,,,,,,,,77,001,2022-10-06_13h09.40.129,test9,2022.1.4,60.08485183033713,
,,,,,,,,1,nBack1Cond.xlsx,111,2,0,0.2,None,1,108,,,,,,,,,,,,,0,0,0,0,0,107,107,107,,,,,,,,,,,,,,,,,,,,,,,,,,,,,,,,,,,,,,,,,,,,,,,,,,,,,,,,,,,,None,769.5819929999998,None,769.5819929999998,770.5943629000103,770.578098100028,None,769.5819929999998,None,769.5819929999998,None,769.5819929999998,None,769.5819929999998,None,769.5819929999998,None,769.5819929999998,None,769.5819929999998,None,769.5819929999998,None,,,,,,,,,,,,,,,,77,001,2022-10-06_13h09.40.129,test9,2022.1.4,60.08485183033713,
,,,,,,,,1,nBack1Cond.xlsx,111,1,-0.2,0.2,None,1,109,,,,,,,,,,,,,0,0,0,0,0,108,108,108,,,,,,,,,,,,,,,,,,,,,,,,,,,,,,,,,,,,,,,,,,,,,,,,,,,,,,,,,,,,None,771.5819689000491,None,771.5819689000491,772.5944517999887,772.5779680999694,None,771.5819689000491,None,771.5819689000491,None,771.5819689000491,None,771.5819689000491,None,771.5819689000491,None,771.5819689000491,None,771.5819689000491,None,771.5819689000491,None,,,,,,,,,,,,,,,,77,001,2022-10-06_13h09.40.129,test9,2022.1.4,60.08485183033713,
,,,,,,,,1,nBack1Cond.xlsx,111,8,0,-0.2,None,1,110,,,,,,,,,,,,,0,0,0,0,0,109,109,109,,,,,,,,,,,,,,,,,,,,,,,,,,,,,,,,,,,,,,,,,,,,,,,,,,,,,,,,,,,,None,773.5812561999774,None,773.5812561999774,774.5948040999938,774.577904200065,None,773.5812561999774,None,773.5812561999774,None,773.5812561999774,None,773.5812561999774,None,773.5812561999774,None,773.5812561999774,None,773.5812561999774,None,773.5812561999774,None,,,,,,,,,,,,,,,,77,001,2022-10-06_13h09.40.129,test9,2022.1.4,60.08485183033713,
,,,,,,,,1,nBack1Cond.xlsx,111,3,0.2,0.2,None,1,111,,,,,,,,,,,,,0,0,0,0,0,110,110,110,,,,,,,,,,,,,,,,,,,,,,,,,,,,,,,,,,,,,,,,,,,,,,,,,,,,,,,,,,,,None,775.5806796000106,None,775.5806796000106,776.5945936000207,776.5777631000383,None,775.5806796000106,None,775.5806796000106,None,775.5806796000106,None,775.5806796000106,None,775.5806796000106,None,775.5806796000106,None,775.5806796000106,None,775.5806796000106,None,,,,,,,,,,,,,,,,77,001,2022-10-06_13h09.40.129,test9,2022.1.4,60.08485183033713,
,,,,,,,,1,nBack1Cond.xlsx,111,3,0.2,0.2,space,1,112,,,,,,,,,,,,,0,0,0,0,0,111,111,111,,,,,,,,,,,,,,,,,,,,,,,,,,,,,,,,,,,,,,,,,,,,,,,,,,,,,,,,,,,,space,777.5816790000536,None,777.5816790000536,778.594514700002,778.5777476000367,None,777.5816790000536,None,777.5816790000536,None,777.5816790000536,None,777.5816790000536,None,777.5816790000536,None,777.5816790000536,None,777.5816790000536,None,777.5816790000536,None,0.8481710000196472,,,,,,,,,,,,,,,77,001,2022-10-06_13h09.40.129,test9,2022.1.4,60.08485183033713,
,,,,,,,,1,nBack1Cond.xlsx,111,4,-0.2,0,None,1,113,,,,,,,,,,,,,0,0,0,0,0,112,112,112,,,,,,,,,,,,,,,,,,,,,,,,,,,,,,,,,,,,,,,,,,,,,,,,,,,,,,,,,,,,None,779.5818413000088,None,779.5818413000088,780.5945150000043,780.5778954999987,None,779.5818413000088,None,779.5818413000088,None,779.5818413000088,None,779.5818413000088,None,779.5818413000088,None,779.5818413000088,None,779.5818413000088,None,779.5818413000088,None,,,,,,,,,,,,,,,,77,001,2022-10-06_13h09.40.129,test9,2022.1.4,60.08485183033713,
,,,,,,,,1,nBack1Cond.xlsx,111,6,0.2,0,None,1,114,,,,,,,,,,,,,0,0,0,0,0,113,113,113,,,,,,,,,,,,,,,,,,,,,,,,,,,,,,,,,,,,,,,,,,,,,,,,,,,,,,,,,,,,None,781.5804914999753,None,781.5804914999753,782.5945527000586,782.5780278000748,None,781.5804914999753,None,781.5804914999753,None,781.5804914999753,None,781.5804914999753,None,781.5804914999753,None,781.5804914999753,None,781.5804914999753,None,781.5804914999753,None,,,,,,,,,,,,,,,,77,001,2022-10-06_13h09.40.129,test9,2022.1.4,60.08485183033713,
,,,,,,,,1,nBack1Cond.xlsx,111,9,0.2,-0.2,None,1,115,,,,,,,,,,,,,0,0,0,0,0,114,114,114,,,,,,,,,,,,,,,,,,,,,,,,,,,,,,,,,,,,,,,,,,,,,,,,,,,,,,,,,,,,None,783.581890600035,None,783.581890600035,784.5943697000621,784.5776854000287,None,783.581890600035,None,783.581890600035,None,783.581890600035,None,783.581890600035,None,783.581890600035,None,783.581890600035,None,783.581890600035,None,783.581890600035,None,,,,,,,,,,,,,,,,77,001,2022-10-06_13h09.40.129,test9,2022.1.4,60.08485183033713,
,,,,,,,,1,nBack1Cond.xlsx,111,9,0.2,-0.2,space,1,116,,,,,,,,,,,,,0,0,0,0,0,115,115,115,,,,,,,,,,,,,,,,,,,,,,,,,,,,,,,,,,,,,,,,,,,,,,,,,,,,,,,,,,,,space,785.5813063000096,None,785.5813063000096,786.5946502999868,786.57809179998,None,785.5813063000096,None,785.5813063000096,None,785.5813063000096,None,785.5813063000096,None,785.5813063000096,None,785.5813063000096,None,785.5813063000096,None,785.5813063000096,None,0.8080619000829756,,,,,,,,,,,,,,,77,001,2022-10-06_13h09.40.129,test9,2022.1.4,60.08485183033713,
,,,,,,,,1,nBack1Cond.xlsx,111,2,0,0.2,None,1,117,,,,,,,,,,,,,0,0,0,0,0,116,116,116,,,,,,,,,,,,,,,,,,,,,,,,,,,,,,,,,,,,,,,,,,,,,,,,,,,,,,,,,,,,None,787.5822771000676,None,787.5822771000676,788.594598100055,788.5779868999962,None,787.5822771000676,None,787.5822771000676,None,787.5822771000676,None,787.5822771000676,None,787.5822771000676,None,787.5822771000676,None,787.5822771000676,None,787.5822771000676,None,,,,,,,,,,,,,,,,77,001,2022-10-06_13h09.40.129,test9,2022.1.4,60.08485183033713,
,,,,,,,,1,nBack1Cond.xlsx,111,6,0.2,0,None,1,118,,,,,,,,,,,,,0,0,0,0,0,117,117,117,,,,,,,,,,,,,,,,,,,,,,,,,,,,,,,,,,,,,,,,,,,,,,,,,,,,,,,,,,,,None,789.5818814999657,None,789.5818814999657,790.5945997000672,790.5779241999844,None,789.5818814999657,None,789.5818814999657,None,789.5818814999657,None,789.5818814999657,None,789.5818814999657,None,789.5818814999657,None,789.5818814999657,None,789.5818814999657,None,,,,,,,,,,,,,,,,77,001,2022-10-06_13h09.40.129,test9,2022.1.4,60.08485183033713,
,,,,,,,,1,nBack1Cond.xlsx,111,6,0.2,0,space,1,119,,,,,,,,,,,,,0,0,0,0,0,118,118,118,,,,,,,,,,,,,,,,,,,,,,,,,,,,,,,,,,,,,,,,,,,,,,,,,,,,,,,,,,,,space,791.5819382000482,None,791.5819382000482,792.5945079000667,792.5776719000423,None,791.5819382000482,None,791.5819382000482,None,791.5819382000482,None,791.5819382000482,None,791.5819382000482,None,791.5819382000482,None,791.5819382000482,None,791.5819382000482,None,1.119522999972105,,,,,,,,,,,,,,,77,001,2022-10-06_13h09.40.129,test9,2022.1.4,60.08485183033713,
,,,,,,,,1,nBack1Cond.xlsx,111,,,,,,,,,,,,,,,,,,,0,0,0,0,,,,,,,,,,,,,,,,,,,,,,,,,,,,,,,,,,,,,,,,,,,,,,,,,,,,,,,,,,,,,,,,,,,,,,,,,,,,,,,,,,,,,,,,,,,,,,,,,,,,,,77,001,2022-10-06_13h09.40.129,test9,2022.1.4,60.08485183033713,
,,,,,,,,2,nBack2Cond.xlsx,121,5,0,0,None,2,120,,,,,,,,,,,,,0,1,1,1,0,0,0,0,,,,,,,,,,,,,,,,,,,,,,,,,,,,,,,,,,,,,,,,,,,,,,,,,,,,,,793.621336500044,None,793.621336500044,None,793.621336500044,None,None,813.2508954000659,None,813.2508954000659,814.2611946000252,814.2444736000616,None,813.2508954000659,None,813.2508954000659,None,813.2508954000659,None,813.2508954000659,None,813.2508954000659,None,813.2508954000659,None,813.2508954000659,None,813.2508954000659,None,,,,,,,,,,,,,,,,77,001,2022-10-06_13h09.40.129,test9,2022.1.4,60.08485183033713,
,,,,,,,,2,nBack2Cond.xlsx,121,2,0,0.2,None,2,121,,,,,,,,,,,,,0,1,1,1,0,1,1,1,,,,,,,,,,,,,,,,,,,,,,,,,,,,,,,,,,,,,,,,,,,,,,,,,,,,,,,,,,,,None,815.2495199000696,None,815.2495199000696,816.2610534999985,816.2445783000439,None,815.2495199000696,None,815.2495199000696,None,815.2495199000696,None,815.2495199000696,None,815.2495199000696,None,815.2495199000696,None,815.2495199000696,None,815.2495199000696,None,,,,,,,,,,,,,,,,77,001,2022-10-06_13h09.40.129,test9,2022.1.4,60.08485183033713,
,,,,,,,,2,nBack2Cond.xlsx,121,6,0.2,0,None,2,122,,,,,,,,,,,,,0,1,1,1,0,2,2,2,,,,,,,,,,,,,,,,,,,,,,,,,,,,,,,,,,,,,,,,,,,,,,,,,,,,,,,,,,,,None,817.247325400007,None,817.247325400007,818.2610121000325,818.2445507000666,None,817.247325400007,None,817.247325400007,None,817.247325400007,None,817.247325400007,None,817.247325400007,None,817.247325400007,None,817.247325400007,None,817.247325400007,None,,,,,,,,,,,,,,,,77,001,2022-10-06_13h09.40.129,test9,2022.1.4,60.08485183033713,
,,,,,,,,2,nBack2Cond.xlsx,121,9,0.2,-0.2,None,2,123,,,,,,,,,,,,,0,1,1,1,0,3,3,3,,,,,,,,,,,,,,,,,,,,,,,,,,,,,,,,,,,,,,,,,,,,,,,,,,,,,,,,,,,,None,819.2469940000447,None,819.2469940000447,820.2611247999594,820.2445506000658,None,819.2469940000447,None,819.2469940000447,None,819.2469940000447,None,819.2469940000447,None,819.2469940000447,None,819.2469940000447,None,819.2469940000447,None,819.2469940000447,None,,,,,,,,,,,,,,,,77,001,2022-10-06_13h09.40.129,test9,2022.1.4,60.08485183033713,
,,,,,,,,2,nBack2Cond.xlsx,121,3,0.2,0.2,None,2,124,,,,,,,,,,,,,0,1,1,1,0,4,4,4,,,,,,,,,,,,,,,,,,,,,,,,,,,,,,,,,,,,,,,,,,,,,,,,,,,,,,,,,,,,None,821.2469167000381,None,821.2469167000381,822.2613026000326,822.2446379000321,None,821.2469167000381,None,821.2469167000381,None,821.2469167000381,None,821.2469167000381,None,821.2469167000381,None,821.2469167000381,None,821.2469167000381,None,821.2469167000381,None,,,,,,,,,,,,,,,,77,001,2022-10-06_13h09.40.129,test9,2022.1.4,60.08485183033713,
,,,,,,,,2,nBack2Cond.xlsx,121,9,0.2,-0.2,space,2,125,,,,,,,,,,,,,0,1,1,1,0,5,5,5,,,,,,,,,,,,,,,,,,,,,,,,,,,,,,,,,,,,,,,,,,,,,,,,,,,,,,,,,,,,space,823.2470443999628,None,823.2470443999628,824.2611845000647,824.2445973000722,None,823.2470443999628,None,823.2470443999628,None,823.2470443999628,None,823.2470443999628,None,823.2470443999628,None,823.2470443999628,None,823.2470443999628,None,823.2470443999628,None,0.7581368999090046,,,,,,,,,,,,,,,77,001,2022-10-06_13h09.40.129,test9,2022.1.4,60.08485183033713,
,,,,,,,,2,nBack2Cond.xlsx,121,7,-0.2,-0.2,None,2,126,,,,,,,,,,,,,0,1,1,1,0,6,6,6,,,,,,,,,,,,,,,,,,,,,,,,,,,,,,,,,,,,,,,,,,,,,,,,,,,,,,,,,,,,None,825.2491287000012,None,825.2491287000012,826.2612017999636,826.244491099962,None,825.2491287000012,None,825.2491287000012,None,825.2491287000012,None,825.2491287000012,None,825.2491287000012,None,825.2491287000012,None,825.2491287000012,None,825.2491287000012,None,,,,,,,,,,,,,,,,77,001,2022-10-06_13h09.40.129,test9,2022.1.4,60.08485183033713,
,,,,,,,,2,nBack2Cond.xlsx,121,1,-0.2,0.2,None,2,127,,,,,,,,,,,,,0,1,1,1,0,7,7,7,,,,,,,,,,,,,,,,,,,,,,,,,,,,,,,,,,,,,,,,,,,,,,,,,,,,,,,,,,,,None,827.247689699987,None,827.247689699987,828.2614373000106,828.2446485999972,None,827.247689699987,None,827.247689699987,None,827.247689699987,None,827.247689699987,None,827.247689699987,None,827.247689699987,None,827.247689699987,None,827.247689699987,None,,,,,,,,,,,,,,,,77,001,2022-10-06_13h09.40.129,test9,2022.1.4,60.08485183033713,
,,,,,,,,2,nBack2Cond.xlsx,121,5,0,0,None,2,128,,,,,,,,,,,,,0,1,1,1,0,8,8,8,,,,,,,,,,,,,,,,,,,,,,,,,,,,,,,,,,,,,,,,,,,,,,,,,,,,,,,,,,,,None,829.2469413999934,None,829.2469413999934,830.2612893000478,830.2444797999924,None,829.2469413999934,None,829.2469413999934,None,829.2469413999934,None,829.2469413999934,None,829.2469413999934,None,829.2469413999934,None,829.2469413999934,None,829.2469413999934,None,,,,,,,,,,,,,,,,77,001,2022-10-06_13h09.40.129,test9,2022.1.4,60.08485183033713,
,,,,,,,,2,nBack2Cond.xlsx,121,7,-0.2,-0.2,None,2,129,,,,,,,,,,,,,0,1,1,1,0,9,9,9,,,,,,,,,,,,,,,,,,,,,,,,,,,,,,,,,,,,,,,,,,,,,,,,,,,,,,,,,,,,None,831.2474968000315,None,831.2474968000315,832.2614570000442,832.2443620000267,None,831.2474968000315,None,831.2474968000315,None,831.2474968000315,None,831.2474968000315,None,831.2474968000315,None,831.2474968000315,None,831.2474968000315,None,831.2474968000315,None,,,,,,,,,,,,,,,,77,001,2022-10-06_13h09.40.129,test9,2022.1.4,60.08485183033713,
,,,,,,,,2,nBack2Cond.xlsx,121,5,0,0,space,2,130,,,,,,,,,,,,,0,1,1,1,0,10,10,10,,,,,,,,,,,,,,,,,,,,,,,,,,,,,,,,,,,,,,,,,,,,,,,,,,,,,,,,,,,,space,833.2479062000057,None,833.2479062000057,834.2612883000402,834.2445219999645,None,833.2479062000057,None,833.2479062000057,None,833.2479062000057,None,833.2479062000057,None,833.2479062000057,None,833.2479062000057,None,833.2479062000057,None,833.2479062000057,None,0.8224685000022873,,,,,,,,,,,,,,,77,001,2022-10-06_13h09.40.129,test9,2022.1.4,60.08485183033713,
,,,,,,,,2,nBack2Cond.xlsx,121,6,0.2,0,None,2,131,,,,,,,,,,,,,0,1,1,1,0,11,11,11,,,,,,,,,,,,,,,,,,,,,,,,,,,,,,,,,,,,,,,,,,,,,,,,,,,,,,,,,,,,None,835.2472433999646,None,835.2472433999646,836.2610293000471,836.244502000045,None,835.2472433999646,None,835.2472433999646,None,835.2472433999646,None,835.2472433999646,None,835.2472433999646,None,835.2472433999646,None,835.2472433999646,None,835.2472433999646,None,,,,,,,,,,,,,,,,77,001,2022-10-06_13h09.40.129,test9,2022.1.4,60.08485183033713,
,,,,,,,,2,nBack2Cond.xlsx,121,3,0.2,0.2,None,2,132,,,,,,,,,,,,,0,1,1,1,0,12,12,12,,,,,,,,,,,,,,,,,,,,,,,,,,,,,,,,,,,,,,,,,,,,,,,,,,,,,,,,,,,,None,837.2493906000163,None,837.2493906000163,838.2610643999651,838.2445026000496,None,837.2493906000163,None,837.2493906000163,None,837.2493906000163,None,837.2493906000163,None,837.2493906000163,None,837.2493906000163,None,837.2493906000163,None,837.2493906000163,None,,,,,,,,,,,,,,,,77,001,2022-10-06_13h09.40.129,test9,2022.1.4,60.08485183033713,
,,,,,,,,2,nBack2Cond.xlsx,121,6,0.2,0,space,2,133,,,,,,,,,,,,,0,1,1,1,0,13,13,13,,,,,,,,,,,,,,,,,,,,,,,,,,,,,,,,,,,,,,,,,,,,,,,,,,,,,,,,,,,,space,839.2470412000548,None,839.2470412000548,840.2610897000413,840.2442681000102,None,839.2470412000548,None,839.2470412000548,None,839.2470412000548,None,839.2470412000548,None,839.2470412000548,None,839.2470412000548,None,839.2470412000548,None,839.2470412000548,None,0.9420710999984294,,,,,,,,,,,,,,,77,001,2022-10-06_13h09.40.129,test9,2022.1.4,60.08485183033713,
,,,,,,,,2,nBack2Cond.xlsx,121,8,0,-0.2,None,2,134,,,,,,,,,,,,,0,1,1,1,0,14,14,14,,,,,,,,,,,,,,,,,,,,,,,,,,,,,,,,,,,,,,,,,,,,,,,,,,,,,,,,,,,,None,841.2488163000671,None,841.2488163000671,842.2611969000427,842.2444300999632,None,841.2488163000671,None,841.2488163000671,None,841.2488163000671,None,841.2488163000671,None,841.2488163000671,None,841.2488163000671,None,841.2488163000671,None,841.2488163000671,None,,,,,,,,,,,,,,,,77,001,2022-10-06_13h09.40.129,test9,2022.1.4,60.08485183033713,
,,,,,,,,2,nBack2Cond.xlsx,121,9,0.2,-0.2,None,2,135,,,,,,,,,,,,,0,1,1,1,0,15,15,15,,,,,,,,,,,,,,,,,,,,,,,,,,,,,,,,,,,,,,,,,,,,,,,,,,,,,,,,,,,,None,843.2471869000001,None,843.2471869000001,844.2611890999833,844.2445175000466,None,843.2471869000001,None,843.2471869000001,None,843.2471869000001,None,843.2471869000001,None,843.2471869000001,None,843.2471869000001,None,843.2471869000001,None,843.2471869000001,None,,,,,,,,,,,,,,,,77,001,2022-10-06_13h09.40.129,test9,2022.1.4,60.08485183033713,
,,,,,,,,2,nBack2Cond.xlsx,121,9,0.2,-0.2,None,2,136,,,,,,,,,,,,,0,1,1,1,0,16,16,16,,,,,,,,,,,,,,,,,,,,,,,,,,,,,,,,,,,,,,,,,,,,,,,,,,,,,,,,,,,,None,845.2488040999742,None,845.2488040999742,846.2613144000061,846.2446107000578,None,845.2488040999742,None,845.2488040999742,None,845.2488040999742,None,845.2488040999742,None,845.2488040999742,None,845.2488040999742,None,845.2488040999742,None,845.2488040999742,None,,,,,,,,,,,,,,,,77,001,2022-10-06_13h09.40.129,test9,2022.1.4,60.08485183033713,
,,,,,,,,2,nBack2Cond.xlsx,121,1,-0.2,0.2,None,2,137,,,,,,,,,,,,,0,1,1,1,0,17,17,17,,,,,,,,,,,,,,,,,,,,,,,,,,,,,,,,,,,,,,,,,,,,,,,,,,,,,,,,,,,,None,847.2492230000207,None,847.2492230000207,848.2612653999822,848.2444958999986,None,847.2492230000207,None,847.2492230000207,None,847.2492230000207,None,847.2492230000207,None,847.2492230000207,None,847.2492230000207,None,847.2492230000207,None,847.2492230000207,None,,,,,,,,,,,,,,,,77,001,2022-10-06_13h09.40.129,test9,2022.1.4,60.08485183033713,
,,,,,,,,2,nBack2Cond.xlsx,121,3,0.2,0.2,None,2,138,,,,,,,,,,,,,0,1,1,1,0,18,18,18,,,,,,,,,,,,,,,,,,,,,,,,,,,,,,,,,,,,,,,,,,,,,,,,,,,,,,,,,,,,None,849.2482197000645,None,849.2482197000645,850.2612977999961,850.2443398999749,None,849.2482197000645,None,849.2482197000645,None,849.2482197000645,None,849.2482197000645,None,849.2482197000645,None,849.2482197000645,None,849.2482197000645,None,849.2482197000645,None,,,,,,,,,,,,,,,,77,001,2022-10-06_13h09.40.129,test9,2022.1.4,60.08485183033713,
,,,,,,,,2,nBack2Cond.xlsx,121,5,0,0,None,2,139,,,,,,,,,,,,,0,1,1,1,0,19,19,19,,,,,,,,,,,,,,,,,,,,,,,,,,,,,,,,,,,,,,,,,,,,,,,,,,,,,,,,,,,,None,851.247477900004,None,851.247477900004,852.2610829999903,852.2442535000155,None,851.247477900004,None,851.247477900004,None,851.247477900004,None,851.247477900004,None,851.247477900004,None,851.247477900004,None,851.247477900004,None,851.247477900004,None,,,,,,,,,,,,,,,,77,001,2022-10-06_13h09.40.129,test9,2022.1.4,60.08485183033713,
,,,,,,,,2,nBack2Cond.xlsx,121,3,0.2,0.2,space,2,140,,,,,,,,,,,,,0,1,1,1,0,20,20,20,,,,,,,,,,,,,,,,,,,,,,,,,,,,,,,,,,,,,,,,,,,,,,,,,,,,,,,,,,,,None,853.2475261000218,None,853.2475261000218,854.2613063000608,854.2445351000642,None,853.2475261000218,None,853.2475261000218,None,853.2475261000218,None,853.2475261000218,None,853.2475261000218,None,853.2475261000218,None,853.2475261000218,None,853.2475261000218,None,,,,,,,,,,,,,,,,77,001,2022-10-06_13h09.40.129,test9,2022.1.4,60.08485183033713,
,,,,,,,,2,nBack2Cond.xlsx,121,4,-0.2,0,None,2,141,,,,,,,,,,,,,0,1,1,1,0,21,21,21,,,,,,,,,,,,,,,,,,,,,,,,,,,,,,,,,,,,,,,,,,,,,,,,,,,,,,,,,,,,None,855.247484200052,None,855.247484200052,856.261096799979,856.2443642000435,None,855.247484200052,None,855.247484200052,None,855.247484200052,None,855.247484200052,None,855.247484200052,None,855.247484200052,None,855.247484200052,None,855.247484200052,None,,,,,,,,,,,,,,,,77,001,2022-10-06_13h09.40.129,test9,2022.1.4,60.08485183033713,
,,,,,,,,2,nBack2Cond.xlsx,121,7,-0.2,-0.2,None,2,142,,,,,,,,,,,,,0,1,1,1,0,22,22,22,,,,,,,,,,,,,,,,,,,,,,,,,,,,,,,,,,,,,,,,,,,,,,,,,,,,,,,,,,,,None,857.2478484000312,None,857.2478484000312,858.261207500007,858.2443868999835,None,857.2478484000312,None,857.2478484000312,None,857.2478484000312,None,857.2478484000312,None,857.2478484000312,None,857.2478484000312,None,857.2478484000312,None,857.2478484000312,None,,,,,,,,,,,,,,,,77,001,2022-10-06_13h09.40.129,test9,2022.1.4,60.08485183033713,
,,,,,,,,2,nBack2Cond.xlsx,121,4,-0.2,0,space,2,143,,,,,,,,,,,,,0,1,1,1,0,23,23,23,,,,,,,,,,,,,,,,,,,,,,,,,,,,,,,,,,,,,,,,,,,,,,,,,,,,,,,,,,,,space,859.2472030000063,None,859.2472030000063,860.2613592999987,860.2445546999807,None,859.2472030000063,None,859.2472030000063,None,859.2472030000063,None,859.2472030000063,None,859.2472030000063,None,859.2472030000063,None,859.2472030000063,None,859.2472030000063,None,0.7903259999584407,,,,,,,,,,,,,,,77,001,2022-10-06_13h09.40.129,test9,2022.1.4,60.08485183033713,
,,,,,,,,2,nBack2Cond.xlsx,121,4,-0.2,0,None,2,144,,,,,,,,,,,,,0,1,1,1,0,24,24,24,,,,,,,,,,,,,,,,,,,,,,,,,,,,,,,,,,,,,,,,,,,,,,,,,,,,,,,,,,,,None,861.2488512999844,None,861.2488512999844,862.2614071000135,862.2444321999792,None,861.2488512999844,None,861.2488512999844,None,861.2488512999844,None,861.2488512999844,None,861.2488512999844,None,861.2488512999844,None,861.2488512999844,None,861.2488512999844,None,,,,,,,,,,,,,,,,77,001,2022-10-06_13h09.40.129,test9,2022.1.4,60.08485183033713,
,,,,,,,,2,nBack2Cond.xlsx,121,5,0,0,None,2,145,,,,,,,,,,,,,0,1,1,1,0,25,25,25,,,,,,,,,,,,,,,,,,,,,,,,,,,,,,,,,,,,,,,,,,,,,,,,,,,,,,,,,,,,None,863.2481798999943,None,863.2481798999943,864.2610749000451,864.2447603000328,None,863.2481798999943,None,863.2481798999943,None,863.2481798999943,None,863.2481798999943,None,863.2481798999943,None,863.2481798999943,None,863.2481798999943,None,863.2481798999943,None,,,,,,,,,,,,,,,,77,001,2022-10-06_13h09.40.129,test9,2022.1.4,60.08485183033713,
,,,,,,,,2,nBack2Cond.xlsx,121,2,0,0.2,None,2,146,,,,,,,,,,,,,0,1,1,1,0,26,26,26,,,,,,,,,,,,,,,,,,,,,,,,,,,,,,,,,,,,,,,,,,,,,,,,,,,,,,,,,,,,None,865.2470647000009,None,865.2470647000009,866.261144899996,866.2443634000374,None,865.2470647000009,None,865.2470647000009,None,865.2470647000009,None,865.2470647000009,None,865.2470647000009,None,865.2470647000009,None,865.2470647000009,None,865.2470647000009,None,,,,,,,,,,,,,,,,77,001,2022-10-06_13h09.40.129,test9,2022.1.4,60.08485183033713,
,,,,,,,,2,nBack2Cond.xlsx,121,6,0.2,0,None,2,147,,,,,,,,,,,,,0,1,1,1,0,27,27,27,,,,,,,,,,,,,,,,,,,,,,,,,,,,,,,,,,,,,,,,,,,,,,,,,,,,,,,,,,,,None,867.2472249000566,None,867.2472249000566,868.2611672000494,868.2444633999839,None,867.2472249000566,None,867.2472249000566,None,867.2472249000566,None,867.2472249000566,None,867.2472249000566,None,867.2472249000566,None,867.2472249000566,None,867.2472249000566,None,,,,,,,,,,,,,,,,77,001,2022-10-06_13h09.40.129,test9,2022.1.4,60.08485183033713,
,,,,,,,,2,nBack2Cond.xlsx,121,7,-0.2,-0.2,None,2,148,,,,,,,,,,,,,0,1,1,1,0,28,28,28,,,,,,,,,,,,,,,,,,,,,,,,,,,,,,,,,,,,,,,,,,,,,,,,,,,,,,,,,,,,None,869.2478627000237,None,869.2478627000237,870.2611362000462,870.2444716000464,None,869.2478627000237,None,869.2478627000237,None,869.2478627000237,None,869.2478627000237,None,869.2478627000237,None,869.2478627000237,None,869.2478627000237,None,869.2478627000237,None,,,,,,,,,,,,,,,,77,001,2022-10-06_13h09.40.129,test9,2022.1.4,60.08485183033713,
,,,,,,,,2,nBack2Cond.xlsx,121,6,0.2,0,space,2,149,,,,,,,,,,,,,0,1,1,1,0,29,29,29,,,,,,,,,,,,,,,,,,,,,,,,,,,,,,,,,,,,,,,,,,,,,,,,,,,,,,,,,,,,space,871.2485167999985,None,871.2485167999985,872.2611666000448,872.2442561000353,None,871.2485167999985,None,871.2485167999985,None,871.2485167999985,None,871.2485167999985,None,871.2485167999985,None,871.2485167999985,None,871.2485167999985,None,871.2485167999985,None,0.7491274999920279,,,,,,,,,,,,,,,77,001,2022-10-06_13h09.40.129,test9,2022.1.4,60.08485183033713,
,,,,,,,,2,nBack2Cond.xlsx,121,8,0,-0.2,None,2,150,,,,,,,,,,,,,0,1,1,1,0,30,30,30,,,,,,,,,,,,,,,,,,,,,,,,,,,,,,,,,,,,,,,,,,,,,,,,,,,,,,,,,,,,None,873.2482940000482,None,873.2482940000482,874.260997000034,874.244574100012,None,873.2482940000482,None,873.2482940000482,None,873.2482940000482,None,873.2482940000482,None,873.2482940000482,None,873.2482940000482,None,873.2482940000482,None,873.2482940000482,None,,,,,,,,,,,,,,,,77,001,2022-10-06_13h09.40.129,test9,2022.1.4,60.08485183033713,
,,,,,,,,2,nBack2Cond.xlsx,121,2,0,0.2,None,2,151,,,,,,,,,,,,,0,1,1,1,0,31,31,31,,,,,,,,,,,,,,,,,,,,,,,,,,,,,,,,,,,,,,,,,,,,,,,,,,,,,,,,,,,,None,875.2483025999973,None,875.2483025999973,876.2612327999668,876.2443361000624,None,875.2483025999973,None,875.2483025999973,None,875.2483025999973,None,875.2483025999973,None,875.2483025999973,None,875.2483025999973,None,875.2483025999973,None,875.2483025999973,None,,,,,,,,,,,,,,,,77,001,2022-10-06_13h09.40.129,test9,2022.1.4,60.08485183033713,
,,,,,,,,2,nBack2Cond.xlsx,121,8,0,-0.2,space,2,152,,,,,,,,,,,,,0,1,1,1,0,32,32,32,,,,,,,,,,,,,,,,,,,,,,,,,,,,,,,,,,,,,,,,,,,,,,,,,,,,,,,,,,,,None,877.2473751000362,None,877.2473751000362,878.2610706000123,878.2445362000726,None,877.2473751000362,None,877.2473751000362,None,877.2473751000362,None,877.2473751000362,None,877.2473751000362,None,877.2473751000362,None,877.2473751000362,None,877.2473751000362,None,,,,,,,,,,,,,,,,77,001,2022-10-06_13h09.40.129,test9,2022.1.4,60.08485183033713,
,,,,,,,,2,nBack2Cond.xlsx,121,9,0.2,-0.2,None,2,153,,,,,,,,,,,,,0,1,1,1,0,33,33,33,,,,,,,,,,,,,,,,,,,,,,,,,,,,,,,,,,,,,,,,,,,,,,,,,,,,,,,,,,,,None,879.2478576999856,None,879.2478576999856,880.2611490000272,880.2443176000379,None,879.2478576999856,None,879.2478576999856,None,879.2478576999856,None,879.2478576999856,None,879.2478576999856,None,879.2478576999856,None,879.2478576999856,None,879.2478576999856,None,,,,,,,,,,,,,,,,77,001,2022-10-06_13h09.40.129,test9,2022.1.4,60.08485183033713,
,,,,,,,,2,nBack2Cond.xlsx,121,6,0.2,0,None,2,154,,,,,,,,,,,,,0,1,1,1,0,34,34,34,,,,,,,,,,,,,,,,,,,,,,,,,,,,,,,,,,,,,,,,,,,,,,,,,,,,,,,,,,,,None,881.2469457000261,None,881.2469457000261,882.2612433000468,882.2442297000671,None,881.2469457000261,None,881.2469457000261,None,881.2469457000261,None,881.2469457000261,None,881.2469457000261,None,881.2469457000261,None,881.2469457000261,None,881.2469457000261,None,,,,,,,,,,,,,,,,77,001,2022-10-06_13h09.40.129,test9,2022.1.4,60.08485183033713,
,,,,,,,,2,nBack2Cond.xlsx,121,9,0.2,-0.2,space,2,155,,,,,,,,,,,,,0,1,1,1,0,35,35,35,,,,,,,,,,,,,,,,,,,,,,,,,,,,,,,,,,,,,,,,,,,,,,,,,,,,,,,,,,,,None,883.2478496000404,None,883.2478496000404,884.2611825000495,884.2442632999737,None,883.2478496000404,None,883.2478496000404,None,883.2478496000404,None,883.2478496000404,None,883.2478496000404,None,883.2478496000404,None,883.2478496000404,None,883.2478496000404,None,,,,,,,,,,,,,,,,77,001,2022-10-06_13h09.40.129,test9,2022.1.4,60.08485183033713,
,,,,,,,,2,nBack2Cond.xlsx,121,4,-0.2,0,None,2,156,,,,,,,,,,,,,0,1,1,1,0,36,36,36,,,,,,,,,,,,,,,,,,,,,,,,,,,,,,,,,,,,,,,,,,,,,,,,,,,,,,,,,,,,None,885.2482751000207,None,885.2482751000207,886.2610469000647,886.2444600000745,None,885.2482751000207,None,885.2482751000207,None,885.2482751000207,None,885.2482751000207,None,885.2482751000207,None,885.2482751000207,None,885.2482751000207,None,885.2482751000207,None,,,,,,,,,,,,,,,,77,001,2022-10-06_13h09.40.129,test9,2022.1.4,60.08485183033713,
,,,,,,,,2,nBack2Cond.xlsx,121,3,0.2,0.2,None,2,157,,,,,,,,,,,,,0,1,1,1,0,37,37,37,,,,,,,,,,,,,,,,,,,,,,,,,,,,,,,,,,,,,,,,,,,,,,,,,,,,,,,,,,,,None,887.2478032000363,None,887.2478032000363,888.2612942999694,888.2444602999603,None,887.2478032000363,None,887.2478032000363,None,887.2478032000363,None,887.2478032000363,None,887.2478032000363,None,887.2478032000363,None,887.2478032000363,None,887.2478032000363,None,,,,,,,,,,,,,,,,77,001,2022-10-06_13h09.40.129,test9,2022.1.4,60.08485183033713,
,,,,,,,,2,nBack2Cond.xlsx,121,8,0,-0.2,None,2,158,,,,,,,,,,,,,0,1,1,1,0,38,38,38,,,,,,,,,,,,,,,,,,,,,,,,,,,,,,,,,,,,,,,,,,,,,,,,,,,,,,,,,,,,None,889.2485929999966,None,889.2485929999966,890.2612765000667,890.2442092000274,None,889.2485929999966,None,889.2485929999966,None,889.2485929999966,None,889.2485929999966,None,889.2485929999966,None,889.2485929999966,None,889.2485929999966,None,889.2485929999966,None,,,,,,,,,,,,,,,,77,001,2022-10-06_13h09.40.129,test9,2022.1.4,60.08485183033713,
,,,,,,,,2,nBack2Cond.xlsx,121,3,0.2,0.2,space,2,159,,,,,,,,,,,,,0,1,1,1,0,39,39,39,,,,,,,,,,,,,,,,,,,,,,,,,,,,,,,,,,,,,,,,,,,,,,,,,,,,,,,,,,,,None,891.2481383000268,None,891.2481383000268,892.2610357999802,892.2444111000514,None,891.2481383000268,None,891.2481383000268,None,891.2481383000268,None,891.2481383000268,None,891.2481383000268,None,891.2481383000268,None,891.2481383000268,None,891.2481383000268,None,,,,,,,,,,,,,,,,77,001,2022-10-06_13h09.40.129,test9,2022.1.4,60.08485183033713,
,,,,,,,,2,nBack2Cond.xlsx,121,1,-0.2,0.2,None,2,160,,,,,,,,,,,,,0,1,1,1,0,40,40,40,,,,,,,,,,,,,,,,,,,,,,,,,,,,,,,,,,,,,,,,,,,,,,,,,,,,,,,,,,,,None,893.2470035000006,None,893.2470035000006,894.2609580999706,894.2443231999641,None,893.2470035000006,None,893.2470035000006,None,893.2470035000006,None,893.2470035000006,None,893.2470035000006,None,893.2470035000006,None,893.2470035000006,None,893.2470035000006,None,,,,,,,,,,,,,,,,77,001,2022-10-06_13h09.40.129,test9,2022.1.4,60.08485183033713,
,,,,,,,,2,nBack2Cond.xlsx,121,4,-0.2,0,None,2,161,,,,,,,,,,,,,0,1,1,1,0,41,41,41,,,,,,,,,,,,,,,,,,,,,,,,,,,,,,,,,,,,,,,,,,,,,,,,,,,,,,,,,,,,None,895.2475137000438,None,895.2475137000438,896.2611204000423,896.2444372000173,None,895.2475137000438,None,895.2475137000438,None,895.2475137000438,None,895.2475137000438,None,895.2475137000438,None,895.2475137000438,None,895.2475137000438,None,895.2475137000438,None,,,,,,,,,,,,,,,,77,001,2022-10-06_13h09.40.129,test9,2022.1.4,60.08485183033713,
,,,,,,,,2,nBack2Cond.xlsx,121,2,0,0.2,None,2,162,,,,,,,,,,,,,0,1,1,1,0,42,42,42,,,,,,,,,,,,,,,,,,,,,,,,,,,,,,,,,,,,,,,,,,,,,,,,,,,,,,,,,,,,None,897.2478472000221,None,897.2478472000221,898.2611338000279,898.2445489000529,None,897.2478472000221,None,897.2478472000221,None,897.2478472000221,None,897.2478472000221,None,897.2478472000221,None,897.2478472000221,None,897.2478472000221,None,897.2478472000221,None,,,,,,,,,,,,,,,,77,001,2022-10-06_13h09.40.129,test9,2022.1.4,60.08485183033713,
,,,,,,,,2,nBack2Cond.xlsx,121,4,-0.2,0,space,2,163,,,,,,,,,,,,,0,1,1,1,0,43,43,43,,,,,,,,,,,,,,,,,,,,,,,,,,,,,,,,,,,,,,,,,,,,,,,,,,,,,,,,,,,,space,899.2468039999949,None,899.2468039999949,900.261219899985,900.2442786999745,None,899.2468039999949,None,899.2468039999949,None,899.2468039999949,None,899.2468039999949,None,899.2468039999949,None,899.2468039999949,None,899.2468039999949,None,899.2468039999949,None,1.031227400060743,,,,,,,,,,,,,,,77,001,2022-10-06_13h09.40.129,test9,2022.1.4,60.08485183033713,
,,,,,,,,2,nBack2Cond.xlsx,121,8,0,-0.2,None,2,164,,,,,,,,,,,,,0,1,1,1,0,44,44,44,,,,,,,,,,,,,,,,,,,,,,,,,,,,,,,,,,,,,,,,,,,,,,,,,,,,,,,,,,,,None,901.2476410999661,None,901.2476410999661,902.2611547000706,902.2444569000509,None,901.2476410999661,None,901.2476410999661,None,901.2476410999661,None,901.2476410999661,None,901.2476410999661,None,901.2476410999661,None,901.2476410999661,None,901.2476410999661,None,,,,,,,,,,,,,,,,77,001,2022-10-06_13h09.40.129,test9,2022.1.4,60.08485183033713,
,,,,,,,,2,nBack2Cond.xlsx,121,5,0,0,None,2,165,,,,,,,,,,,,,0,1,1,1,0,45,45,45,,,,,,,,,,,,,,,,,,,,,,,,,,,,,,,,,,,,,,,,,,,,,,,,,,,,,,,,,,,,None,903.2468144000741,None,903.2468144000741,904.2611198000377,904.2444528000196,None,903.2468144000741,None,903.2468144000741,None,903.2468144000741,None,903.2468144000741,None,903.2468144000741,None,903.2468144000741,None,903.2468144000741,None,903.2468144000741,None,,,,,,,,,,,,,,,,77,001,2022-10-06_13h09.40.129,test9,2022.1.4,60.08485183033713,
,,,,,,,,2,nBack2Cond.xlsx,121,1,-0.2,0.2,None,2,166,,,,,,,,,,,,,0,1,1,1,0,46,46,46,,,,,,,,,,,,,,,,,,,,,,,,,,,,,,,,,,,,,,,,,,,,,,,,,,,,,,,,,,,,None,905.246648899978,None,905.246648899978,906.2612669999944,906.2444033999927,None,905.246648899978,None,905.246648899978,None,905.246648899978,None,905.246648899978,None,905.246648899978,None,905.246648899978,None,905.246648899978,None,905.246648899978,None,,,,,,,,,,,,,,,,77,001,2022-10-06_13h09.40.129,test9,2022.1.4,60.08485183033713,
,,,,,,,,2,nBack2Cond.xlsx,121,5,0,0,space,2,167,,,,,,,,,,,,,0,1,1,1,0,47,47,47,,,,,,,,,,,,,,,,,,,,,,,,,,,,,,,,,,,,,,,,,,,,,,,,,,,,,,,,,,,,None,907.2474855000619,None,907.2474855000619,908.2612448000582,908.2442991000134,None,907.2474855000619,None,907.2474855000619,None,907.2474855000619,None,907.2474855000619,None,907.2474855000619,None,907.2474855000619,None,907.2474855000619,None,907.2474855000619,None,,,,,,,,,,,,,,,,77,001,2022-10-06_13h09.40.129,test9,2022.1.4,60.08485183033713,
,,,,,,,,2,nBack2Cond.xlsx,121,3,0.2,0.2,None,2,168,,,,,,,,,,,,,0,1,1,1,0,48,48,48,,,,,,,,,,,,,,,,,,,,,,,,,,,,,,,,,,,,,,,,,,,,,,,,,,,,,,,,,,,,None,909.2479283000575,None,909.2479283000575,910.2610694000032,910.2443867999827,None,909.2479283000575,None,909.2479283000575,None,909.2479283000575,None,909.2479283000575,None,909.2479283000575,None,909.2479283000575,None,909.2479283000575,None,909.2479283000575,None,,,,,,,,,,,,,,,,77,001,2022-10-06_13h09.40.129,test9,2022.1.4,60.08485183033713,
,,,,,,,,2,nBack2Cond.xlsx,121,6,0.2,0,None,2,169,,,,,,,,,,,,,0,1,1,1,0,49,49,49,,,,,,,,,,,,,,,,,,,,,,,,,,,,,,,,,,,,,,,,,,,,,,,,,,,,,,,,,,,,None,911.2480309000239,None,911.2480309000239,912.2611853000708,912.2443996999646,None,911.2480309000239,None,911.2480309000239,None,911.2480309000239,None,911.2480309000239,None,911.2480309000239,None,911.2480309000239,None,911.2480309000239,None,911.2480309000239,None,,,,,,,,,,,,,,,,77,001,2022-10-06_13h09.40.129,test9,2022.1.4,60.08485183033713,
