eotrial,eocinstr,eocmarker1,eocmarker2,eocmarker3,eocmarker4,itemnumber,itemtext,nbackInstruction,condsFile,nbackmarker1,square,loc1,loc2,corrAns,trialsNum,trialNum,eoecloop.thisRepN,eoecloop.thisTrialN,eoecloop.thisN,eoecloop.thisIndex,wakeup.thisRepN,wakeup.thisTrialN,wakeup.thisN,wakeup.thisIndex,questions.thisRepN,questions.thisTrialN,questions.thisN,questions.thisIndex,nb_taskloop.thisRepN,nb_taskloop.thisTrialN,nb_taskloop.thisN,nb_taskloop.thisIndex,nb_trials.thisRepN,nb_trials.thisTrialN,nb_trials.thisN,nb_trials.thisIndex,key_resp_3.started,text_4.started,mouse_2.started,h_eoec.started,key_resp_3.keys,key_resp_3.rt,mouse_2.x,mouse_2.y,mouse_2.leftButton,mouse_2.midButton,mouse_2.rightButton,text_2.started,key_resp.started,key_resp.keys,text_8.started,key_resp_10.started,key_resp_10.keys,img_whte.started,img_black.started,text_5.started,key_resp_4.started,mouse.started,h_arsq.started,key_resp_4.keys,key_resp_4.rt,mouse.x,mouse.y,mouse.leftButton,mouse.midButton,mouse.rightButton,slider.started,text.started,key_resp_9.started,slider.response,slider.rt,key_resp_9.keys,instrText.started,h_nback.started,instrResp.started,instrImg.started,trialResp.started,trialSquare.started,gridLine1.started,gridLine2.started,gridLine3.started,gridLine4.started,gridLine5.started,gridLine6.started,gridLine7.started,gridLine8.started,trialFix.started,trialSquare.stopped,trialFix.stopped,trialResp.keys,trialResp.rt,trialResp.stopped,gridLine1.stopped,gridLine2.stopped,gridLine3.stopped,gridLine4.stopped,gridLine5.stopped,gridLine6.stopped,gridLine7.stopped,gridLine8.stopped,endText.started,key_resp_5.started,key_resp_5.keys,key_resp_5.rt,text_6.started,key_resp_6.started,h_movie.started,key_resp_6.keys,key_resp_6.rt,key_resp_8.started,movie.started,key_resp_8.keys,key_resp_8.rt,text_7.started,key_resp_7.started,text_7.stopped,key_resp_7.stopped,key_resp_7.keys,participant,session,date,expName,psychopyVersion,frameRate,
,,,,,,,,,,,,,,,,,,,,,,,,,,,,,,,,,,,,,10.902559299953282,10.902559299953282,3.1800009310245514e-05,10.902559299953282,space,0.7834550999104977,,,,,,,,,,,,,,,,,,,,,,,,,,,,,,,,,,,,,,,,,,,,,,,,,,,,,,,,,,,,,,,,,,,,,,,,,,,,,,001,2022-10-22_15h54.11.592,test9,2022.2.4,59.967893266602324,
,,,,,,,,,,,,,,,,,,,,,,,,,,,,,,,,,,,,,,,,,,,-0.125,0.1,0,0,0,,,,,,,,,,,,,,,,,,,,,,,,,,,,,,,,,,,,,,,,,,,,,,,,,,,,,,,,,,,,,,,,,,,,,,,,,001,2022-10-22_15h54.11.592,test9,2022.2.4,59.967893266602324,
1,eyes open,11,12,13,14,,,,,,,,,,,,0,0,0,0,,,,,,,,,,,,,,,,,,,,,,,,,,,,11.728442300111055,11.728442300111055,None,13.726329700089991,13.726329700089991,None,,,,,,,,,,,,,,,,,,,,,,,,,,,,,,,,,,,,,,,,,,,,,,,,,,,,,,,,,,,,,,,,,,,001,2022-10-22_15h54.11.592,test9,2022.2.4,59.967893266602324,
2,eyes closed,21,22,23,24,,,,,,,,,,,,0,1,1,1,,,,,,,,,,,,,,,,,,,,,,,,,,,,193.72850279998966,193.72850279998966,None,195.71934750000946,195.71934750000946,None,,,,,,,,,,,,,,,,,,,,,,,,,,,,,,,,,,,,,,,,,,,,,,,,,,,,,,,,,,,,,,,,,,,001,2022-10-22_15h54.11.592,test9,2022.2.4,59.967893266602324,
,,,,,,,,,,,,,,,,,,,,,0,0,0,0,,,,,,,,,,,,,,,,,,,,,,,,,,,,,,375.72939800005406,375.9294730001129,,,,,,,,,,,,,,,,,,,,,,,,,,,,,,,,,,,,,,,,,,,,,,,,,,,,,,,,,,,,,,,,,001,2022-10-22_15h54.11.592,test9,2022.2.4,59.967893266602324,
,,,,,,,,,,,,,,,,,,,,,1,0,1,0,,,,,,,,,,,,,,,,,,,,,,,,,,,,,,376.1293631999288,376.3293663999066,,,,,,,,,,,,,,,,,,,,,,,,,,,,,,,,,,,,,,,,,,,,,,,,,,,,,,,,,,,,,,,,,001,2022-10-22_15h54.11.592,test9,2022.2.4,59.967893266602324,
,,,,,,,,,,,,,,,,,,,,,2,0,2,0,,,,,,,,,,,,,,,,,,,,,,,,,,,,,,376.5293886999134,376.72937580011785,,,,,,,,,,,,,,,,,,,,,,,,,,,,,,,,,,,,,,,,,,,,,,,,,,,,,,,,,,,,,,,,,001,2022-10-22_15h54.11.592,test9,2022.2.4,59.967893266602324,
,,,,,,,,,,,,,,,,,,,,,3,0,3,0,,,,,,,,,,,,,,,,,,,,,,,,,,,,,,376.9294010999147,377.1292785999831,,,,,,,,,,,,,,,,,,,,,,,,,,,,,,,,,,,,,,,,,,,,,,,,,,,,,,,,,,,,,,,,,001,2022-10-22_15h54.11.592,test9,2022.2.4,59.967893266602324,
,,,,,,,,,,,,,,,,,,,,,,,,,,,,,,,,,,,,,,,,,,,,,,,,,,,,,,,,377.3295289000962,377.3295289000962,0.016053300350904465,377.3295289000962,space,9.684642299776897,,,,,,,,,,,,,,,,,,,,,,,,,,,,,,,,,,,,,,,,,,,,,,,,,,,,,,,,,,,001,2022-10-22_15h54.11.592,test9,2022.2.4,59.967893266602324,
,,,,,,,,,,,,,,,,,,,,,,,,,,,,,,,,,,,,,,,,,,,,,,,,,,,,,,,,,,,,,,0.8861111111111111,-0.28703703703703703,0,0,0,,,,,,,,,,,,,,,,,,,,,,,,,,,,,,,,,,,,,,,,,,,,,,,,,,,,,,001,2022-10-22_15h54.11.592,test9,2022.2.4,59.967893266602324,
,,,,,,19,I was conscious of my body,,,,,,,,,,,,,,,,,,0,0,0,18,,,,,,,,,,,,,,,,,,,,,,,,,,,,,,,,,,,,,,,387.11304720002227,387.11304720002227,387.11304720002227,4.0,5.27636170014739,None,,,,,,,,,,,,,,,,,,,,,,,,,,,,,,,,,,,,,,,,,,,,,,,,001,2022-10-22_15h54.11.592,test9,2022.2.4,59.967893266602324,
,,,,,,18,I felt happy,,,,,,,,,,,,,,,,,,0,1,1,17,,,,,,,,,,,,,,,,,,,,,,,,,,,,,,,,,,,,,,,392.57167560001835,392.57167560001835,392.57167560001835,4.0,1.3604761001188308,None,,,,,,,,,,,,,,,,,,,,,,,,,,,,,,,,,,,,,,,,,,,,,,,,001,2022-10-22_15h54.11.592,test9,2022.2.4,59.967893266602324,
,,,,,,5,I placed myself in other peoples shoes,,,,,,,,,,,,,,,,,,0,2,2,4,,,,,,,,,,,,,,,,,,,,,,,,,,,,,,,,,,,,,,,394.13624230003916,394.13624230003916,394.13624230003916,2.0,4.283049300080165,None,,,,,,,,,,,,,,,,,,,,,,,,,,,,,,,,,,,,,,,,,,,,,,,,001,2022-10-22_15h54.11.592,test9,2022.2.4,59.967893266602324,
,,,,,,11,I thought about solving problems,,,,,,,,,,,,,,,,,,0,3,3,10,,,,,,,,,,,,,,,,,,,,,,,,,,,,,,,,,,,,,,,398.6399232998956,398.6399232998956,398.6399232998956,3.0,2.843529700068757,None,,,,,,,,,,,,,,,,,,,,,,,,,,,,,,,,,,,,,,,,,,,,,,,,001,2022-10-22_15h54.11.592,test9,2022.2.4,59.967893266602324,
,,,,,,15,I had difficulty staying awake,,,,,,,,,,,,,,,,,,0,4,4,14,,,,,,,,,,,,,,,,,,,,,,,,,,,,,,,,,,,,,,,401.7008491999004,401.7008491999004,401.7008491999004,3.0,4.845026699826121,None,,,,,,,,,,,,,,,,,,,,,,,,,,,,,,,,,,,,,,,,,,,,,,,,001,2022-10-22_15h54.11.592,test9,2022.2.4,59.967893266602324,
,,,,,,17,I felt relaxed,,,,,,,,,,,,,,,,,,0,5,5,16,,,,,,,,,,,,,,,,,,,,,,,,,,,,,,,,,,,,,,,406.7650059000589,406.7650059000589,406.7650059000589,4.0,1.812013000017032,None,,,,,,,,,,,,,,,,,,,,,,,,,,,,,,,,,,,,,,,,,,,,,,,,001,2022-10-22_15h54.11.592,test9,2022.2.4,59.967893266602324,
,,,,,,32,I had difficulty remembering my feelings,,,,,,,,,,,,,,,,,,0,6,6,31,,,,,,,,,,,,,,,,,,,,,,,,,,,,,,,,,,,,,,,408.8094766999129,408.8094766999129,408.8094766999129,3.0,5.428962300065905,None,,,,,,,,,,,,,,,,,,,,,,,,,,,,,,,,,,,,,,,,,,,,,,,,001,2022-10-22_15h54.11.592,test9,2022.2.4,59.967893266602324,
,,,,,,6,I thought about people I like,,,,,,,,,,,,,,,,,,0,7,7,5,,,,,,,,,,,,,,,,,,,,,,,,,,,,,,,,,,,,,,,414.4403544999659,414.4403544999659,414.4403544999659,3.0,2.4457054999656975,None,,,,,,,,,,,,,,,,,,,,,,,,,,,,,,,,,,,,,,,,,,,,,,,,001,2022-10-22_15h54.11.592,test9,2022.2.4,59.967893266602324,
,,,,,,31,I had difficulty remembering my thoughts,,,,,,,,,,,,,,,,,,0,8,8,30,,,,,,,,,,,,,,,,,,,,,,,,,,,,,,,,,,,,,,,417.1056665000506,417.1056665000506,417.1056665000506,2.0,3.7627334999851882,None,,,,,,,,,,,,,,,,,,,,,,,,,,,,,,,,,,,,,,,,,,,,,,,,001,2022-10-22_15h54.11.592,test9,2022.2.4,59.967893266602324,
,,,,,,34,I had my eyes closed,,,,,,,,,,,,,,,,,,0,9,9,33,,,,,,,,,,,,,,,,,,,,,,,,,,,,,,,,,,,,,,,421.0825531000737,421.0825531000737,421.0825531000737,4.0,7.85892069991678,None,,,,,,,,,,,,,,,,,,,,,,,,,,,,,,,,,,,,,,,,,,,,,,,,001,2022-10-22_15h54.11.592,test9,2022.2.4,59.967893266602324,
,,,,,,8,I thought about my behavior,,,,,,,,,,,,,,,,,,0,10,10,7,,,,,,,,,,,,,,,,,,,,,,,,,,,,,,,,,,,,,,,429.1609602998942,429.1609602998942,429.1609602998942,3.0,3.0597775999922305,None,,,,,,,,,,,,,,,,,,,,,,,,,,,,,,,,,,,,,,,,,,,,,,,,001,2022-10-22_15h54.11.592,test9,2022.2.4,59.967893266602324,
,,,,,,1,I had busy thoughts,,,,,,,,,,,,,,,,,,0,11,11,0,,,,,,,,,,,,,,,,,,,,,,,,,,,,,,,,,,,,,,,432.44444869994186,432.44444869994186,432.44444869994186,3.0,1.5472953000571579,None,,,,,,,,,,,,,,,,,,,,,,,,,,,,,,,,,,,,,,,,,,,,,,,,001,2022-10-22_15h54.11.592,test9,2022.2.4,59.967893266602324,
,,,,,,3,I had difficulty holding on to my thoughts,,,,,,,,,,,,,,,,,,0,12,12,2,,,,,,,,,,,,,,,,,,,,,,,,,,,,,,,,,,,,,,,434.20163609995507,434.20163609995507,434.20163609995507,2.0,3.6939200998749584,None,,,,,,,,,,,,,,,,,,,,,,,,,,,,,,,,,,,,,,,,,,,,,,,,001,2022-10-22_15h54.11.592,test9,2022.2.4,59.967893266602324,
,,,,,,20,I thought about my breathing,,,,,,,,,,,,,,,,,,0,13,13,19,,,,,,,,,,,,,,,,,,,,,,,,,,,,,,,,,,,,,,,438.1148435000796,438.1148435000796,438.1148435000796,2.0,2.2568315998651087,None,,,,,,,,,,,,,,,,,,,,,,,,,,,,,,,,,,,,,,,,,,,,,,,,001,2022-10-22_15h54.11.592,test9,2022.2.4,59.967893266602324,
,,,,,,27,I pictured places,,,,,,,,,,,,,,,,,,0,14,14,26,,,,,,,,,,,,,,,,,,,,,,,,,,,,,,,,,,,,,,,440.59901909995824,440.59901909995824,440.59901909995824,3.0,2.658324599964544,None,,,,,,,,,,,,,,,,,,,,,,,,,,,,,,,,,,,,,,,,,,,,,,,,001,2022-10-22_15h54.11.592,test9,2022.2.4,59.967893266602324,
,,,,,,7,I thought about my feelings,,,,,,,,,,,,,,,,,,0,15,15,6,,,,,,,,,,,,,,,,,,,,,,,,,,,,,,,,,,,,,,,443.47133970004506,443.47133970004506,443.47133970004506,2.0,3.212215500185266,None,,,,,,,,,,,,,,,,,,,,,,,,,,,,,,,,,,,,,,,,,,,,,,,,001,2022-10-22_15h54.11.592,test9,2022.2.4,59.967893266602324,
,,,,,,21,I thought about my heartbeat,,,,,,,,,,,,,,,,,,0,16,16,20,,,,,,,,,,,,,,,,,,,,,,,,,,,,,,,,,,,,,,,446.8970236000605,446.8970236000605,446.8970236000605,2.0,1.8508246999699622,None,,,,,,,,,,,,,,,,,,,,,,,,,,,,,,,,,,,,,,,,,,,,,,,,001,2022-10-22_15h54.11.592,test9,2022.2.4,59.967893266602324,
,,,,,,33,I felt motivated to participate,,,,,,,,,,,,,,,,,,0,17,17,32,,,,,,,,,,,,,,,,,,,,,,,,,,,,,,,,,,,,,,,448.9637684999034,448.9637684999034,448.9637684999034,4.0,2.7052154999691993,None,,,,,,,,,,,,,,,,,,,,,,,,,,,,,,,,,,,,,,,,,,,,,,,,001,2022-10-22_15h54.11.592,test9,2022.2.4,59.967893266602324,
,,,,,,24,I felt pain,,,,,,,,,,,,,,,,,,0,18,18,23,,,,,,,,,,,,,,,,,,,,,,,,,,,,,,,,,,,,,,,451.9006837999914,451.9006837999914,451.9006837999914,2.0,1.5621293999720365,None,,,,,,,,,,,,,,,,,,,,,,,,,,,,,,,,,,,,,,,,,,,,,,,,001,2022-10-22_15h54.11.592,test9,2022.2.4,59.967893266602324,
,,,,,,2,I had rapidly switching thoughts,,,,,,,,,,,,,,,,,,0,19,19,1,,,,,,,,,,,,,,,,,,,,,,,,,,,,,,,,,,,,,,,453.66539150010794,453.66539150010794,453.66539150010794,3.0,2.8166263001039624,None,,,,,,,,,,,,,,,,,,,,,,,,,,,,,,,,,,,,,,,,,,,,,,,,001,2022-10-22_15h54.11.592,test9,2022.2.4,59.967893266602324,
,,,,,,35,I was able to rate the statements,,,,,,,,,,,,,,,,,,0,20,20,34,,,,,,,,,,,,,,,,,,,,,,,,,,,,,,,,,,,,,,,456.70058159995824,456.70058159995824,456.70058159995824,3.0,5.187437599990517,None,,,,,,,,,,,,,,,,,,,,,,,,,,,,,,,,,,,,,,,,,,,,,,,,001,2022-10-22_15h54.11.592,test9,2022.2.4,59.967893266602324,
,,,,,,12,I thought about the future,,,,,,,,,,,,,,,,,,0,21,21,11,,,,,,,,,,,,,,,,,,,,,,,,,,,,,,,,,,,,,,,462.11745669995435,462.11745669995435,462.11745669995435,3.0,1.608768500154838,None,,,,,,,,,,,,,,,,,,,,,,,,,,,,,,,,,,,,,,,,,,,,,,,,001,2022-10-22_15h54.11.592,test9,2022.2.4,59.967893266602324,
,,,,,,28,I had silent conversations,,,,,,,,,,,,,,,,,,0,22,22,27,,,,,,,,,,,,,,,,,,,,,,,,,,,,,,,,,,,,,,,463.95428889989853,463.95428889989853,463.95428889989853,3.0,2.19378440012224,None,,,,,,,,,,,,,,,,,,,,,,,,,,,,,,,,,,,,,,,,,,,,,,,,001,2022-10-22_15h54.11.592,test9,2022.2.4,59.967893266602324,
,,,,,,30,I imagined talking to myself,,,,,,,,,,,,,,,,,,0,23,23,29,,,,,,,,,,,,,,,,,,,,,,,,,,,,,,,,,,,,,,,466.36640499997884,466.36640499997884,466.36640499997884,3.0,1.8607678001280874,None,,,,,,,,,,,,,,,,,,,,,,,,,,,,,,,,,,,,,,,,,,,,,,,,001,2022-10-22_15h54.11.592,test9,2022.2.4,59.967893266602324,
,,,,,,14,I felt sleepy,,,,,,,,,,,,,,,,,,0,24,24,13,,,,,,,,,,,,,,,,,,,,,,,,,,,,,,,,,,,,,,,468.431162300054,468.431162300054,468.431162300054,3.0,2.139679699903354,None,,,,,,,,,,,,,,,,,,,,,,,,,,,,,,,,,,,,,,,,,,,,,,,,001,2022-10-22_15h54.11.592,test9,2022.2.4,59.967893266602324,
,,,,,,13,I felt tired,,,,,,,,,,,,,,,,,,0,25,25,12,,,,,,,,,,,,,,,,,,,,,,,,,,,,,,,,,,,,,,,470.80142870009877,470.80142870009877,470.80142870009877,3.0,1.099777900148183,None,,,,,,,,,,,,,,,,,,,,,,,,,,,,,,,,,,,,,,,,,,,,,,,,001,2022-10-22_15h54.11.592,test9,2022.2.4,59.967893266602324,
,,,,,,29,I thought in words,,,,,,,,,,,,,,,,,,0,26,26,28,,,,,,,,,,,,,,,,,,,,,,,,,,,,,,,,,,,,,,,472.1088783000596,472.1088783000596,472.1088783000596,4.0,3.553717799950391,None,,,,,,,,,,,,,,,,,,,,,,,,,,,,,,,,,,,,,,,,,,,,,,,,001,2022-10-22_15h54.11.592,test9,2022.2.4,59.967893266602324,
,,,,,,4,I thought about others,,,,,,,,,,,,,,,,,,0,27,27,3,,,,,,,,,,,,,,,,,,,,,,,,,,,,,,,,,,,,,,,475.8991845001001,475.8991845001001,475.8991845001001,3.0,1.3512081999797374,None,,,,,,,,,,,,,,,,,,,,,,,,,,,,,,,,,,,,,,,,,,,,,,,,001,2022-10-22_15h54.11.592,test9,2022.2.4,59.967893266602324,
,,,,,,9,I thought about myself,,,,,,,,,,,,,,,,,,0,28,28,8,,,,,,,,,,,,,,,,,,,,,,,,,,,,,,,,,,,,,,,477.45504310005344,477.45504310005344,477.45504310005344,3.0,2.3160468998830765,None,,,,,,,,,,,,,,,,,,,,,,,,,,,,,,,,,,,,,,,,,,,,,,,,001,2022-10-22_15h54.11.592,test9,2022.2.4,59.967893266602324,
,,,,,,22,I felt ill,,,,,,,,,,,,,,,,,,0,29,29,21,,,,,,,,,,,,,,,,,,,,,,,,,,,,,,,,,,,,,,,479.9871604000218,479.9871604000218,479.9871604000218,1.0,2.4655218000989407,None,,,,,,,,,,,,,,,,,,,,,,,,,,,,,,,,,,,,,,,,,,,,,,,,001,2022-10-22_15h54.11.592,test9,2022.2.4,59.967893266602324,
,,,,,,10,I thought about things I need to do,,,,,,,,,,,,,,,,,,0,30,30,9,,,,,,,,,,,,,,,,,,,,,,,,,,,,,,,,,,,,,,,482.6767168000806,482.6767168000806,482.6767168000806,3.0,4.777059499872848,None,,,,,,,,,,,,,,,,,,,,,,,,,,,,,,,,,,,,,,,,,,,,,,,,001,2022-10-22_15h54.11.592,test9,2022.2.4,59.967893266602324,
,,,,,,23,I thought about my health,,,,,,,,,,,,,,,,,,0,31,31,22,,,,,,,,,,,,,,,,,,,,,,,,,,,,,,,,,,,,,,,487.6696955000516,487.6696955000516,487.6696955000516,3.0,1.5293135999236256,None,,,,,,,,,,,,,,,,,,,,,,,,,,,,,,,,,,,,,,,,,,,,,,,,001,2022-10-22_15h54.11.592,test9,2022.2.4,59.967893266602324,
,,,,,,25,I pictured events,,,,,,,,,,,,,,,,,,0,32,32,24,,,,,,,,,,,,,,,,,,,,,,,,,,,,,,,,,,,,,,,489.43308599991724,489.43308599991724,489.43308599991724,3.0,1.3430357000324875,None,,,,,,,,,,,,,,,,,,,,,,,,,,,,,,,,,,,,,,,,,,,,,,,,001,2022-10-22_15h54.11.592,test9,2022.2.4,59.967893266602324,
,,,,,,16,I felt comfortable,,,,,,,,,,,,,,,,,,0,33,33,15,,,,,,,,,,,,,,,,,,,,,,,,,,,,,,,,,,,,,,,490.97910080011934,490.97910080011934,490.97910080011934,4.0,2.41314660012722,None,,,,,,,,,,,,,,,,,,,,,,,,,,,,,,,,,,,,,,,,,,,,,,,,001,2022-10-22_15h54.11.592,test9,2022.2.4,59.967893266602324,
,,,,,,26,I thought in images,,,,,,,,,,,,,,,,,,0,34,34,25,,,,,,,,,,,,,,,,,,,,,,,,,,,,,,,,,,,,,,,493.6250255999621,493.6250255999621,493.6250255999621,2.0,2.6907800000626594,None,,,,,,,,,,,,,,,,,,,,,,,,,,,,,,,,,,,,,,,,,,,,,,,,001,2022-10-22_15h54.11.592,test9,2022.2.4,59.967893266602324,
,,,,,,,,1,nBack1Cond.xlsx,111,6,0.2,0,None,1,1,,,,,,,,,,,,,0,0,0,0,0,0,0,0,,,,,,,,,,,,,,,,,,,,,,,,,,,,,,,,,,,,,496.59589929995127,496.59589929995127,496.59589929995127,496.59589929995127,517.5607861001045,517.5607861001045,517.5607861001045,517.5607861001045,517.5607861001045,517.5607861001045,517.5607861001045,517.5607861001045,517.5607861001045,517.5607861001045,518.4943681000732,518.5606561999302,519.4940355999861,None,,,,,,,,,,,,,,,,,,,,,,,,,,,,,,001,2022-10-22_15h54.11.592,test9,2022.2.4,59.967893266602324,
,,,,,,,,1,nBack1Cond.xlsx,111,6,0.2,0,space,1,2,,,,,,,,,,,,,0,0,0,0,0,1,1,1,,,,,,,,,,,,,,,,,,,,,,,,,,,,,,,,,,,,,,,,,519.5117645000573,519.5117645000573,519.5117645000573,519.5117645000573,519.5117645000573,519.5117645000573,519.5117645000573,519.5117645000573,519.5117645000573,519.5117645000573,520.4938101998996,520.5272280999925,521.4936923999339,space,0.38662849995307624,,,,,,,,,,,,,,,,,,,,,,,,,,,,,001,2022-10-22_15h54.11.592,test9,2022.2.4,59.967893266602324,
,,,,,,,,1,nBack1Cond.xlsx,111,2,0,0.2,None,1,3,,,,,,,,,,,,,0,0,0,0,0,2,2,2,,,,,,,,,,,,,,,,,,,,,,,,,,,,,,,,,,,,,,,,,521.5116485001054,521.5116485001054,521.5116485001054,521.5116485001054,521.5116485001054,521.5116485001054,521.5116485001054,521.5116485001054,521.5116485001054,521.5116485001054,522.493519499898,522.5268977000378,523.4933796999976,None,,,,,,,,,,,,,,,,,,,,,,,,,,,,,,001,2022-10-22_15h54.11.592,test9,2022.2.4,59.967893266602324,
,,,,,,,,1,nBack1Cond.xlsx,111,9,0.2,-0.2,None,1,4,,,,,,,,,,,,,0,0,0,0,0,3,3,3,,,,,,,,,,,,,,,,,,,,,,,,,,,,,,,,,,,,,,,,,523.51135289995,523.51135289995,523.51135289995,523.51135289995,523.51135289995,523.51135289995,523.51135289995,523.51135289995,523.51135289995,523.51135289995,524.4933637001086,524.5265180999413,525.4932401000988,None,,,,,,,,,,,,,,,,,,,,,,,,,,,,,,001,2022-10-22_15h54.11.592,test9,2022.2.4,59.967893266602324,
,,,,,,,,1,nBack1Cond.xlsx,111,9,0.2,-0.2,space,1,5,,,,,,,,,,,,,0,0,0,0,0,4,4,4,,,,,,,,,,,,,,,,,,,,,,,,,,,,,,,,,,,,,,,,,525.5108485999517,525.5108485999517,525.5108485999517,525.5108485999517,525.5108485999517,525.5108485999517,525.5108485999517,525.5108485999517,525.5108485999517,525.5108485999517,526.4929716999177,526.526394699933,527.4928693000693,space,0.37402640003710985,,,,,,,,,,,,,,,,,,,,,,,,,,,,,001,2022-10-22_15h54.11.592,test9,2022.2.4,59.967893266602324,
,,,,,,,,1,nBack1Cond.xlsx,111,6,0.2,0,None,1,6,,,,,,,,,,,,,0,0,0,0,0,5,5,5,,,,,,,,,,,,,,,,,,,,,,,,,,,,,,,,,,,,,,,,,527.5104974999558,527.5104974999558,527.5104974999558,527.5104974999558,527.5104974999558,527.5104974999558,527.5104974999558,527.5104974999558,527.5104974999558,527.5104974999558,528.4926843000576,528.5260089000221,529.4925555000082,None,,,,,,,,,,,,,,,,,,,,,,,,,,,,,,001,2022-10-22_15h54.11.592,test9,2022.2.4,59.967893266602324,
,,,,,,,,1,nBack1Cond.xlsx,111,4,-0.2,0,None,1,7,,,,,,,,,,,,,0,0,0,0,0,6,6,6,,,,,,,,,,,,,,,,,,,,,,,,,,,,,,,,,,,,,,,,,529.5093757000286,529.5093757000286,529.5093757000286,529.5093757000286,529.5093757000286,529.5093757000286,529.5093757000286,529.5093757000286,529.5093757000286,529.5093757000286,530.49535309989,530.5106973999646,,None,,,,,,,,,,,,,,,,,,,,,,,,,,,,,,001,2022-10-22_15h54.11.592,test9,2022.2.4,59.967893266602324,
,,,,,,,,1,nBack1Cond.xlsx,111,3,0.2,0.2,None,1,8,,,,,,,,,,,,,0,0,0,0,0,7,7,7,,,,,,,,,,,,,,,,,,,,,,,,,,,,,,,,,,,,,,,,,531.5103521000128,531.5103521000128,531.5103521000128,531.5103521000128,531.5103521000128,531.5103521000128,531.5103521000128,531.5103521000128,531.5103521000128,531.5103521000128,532.4923904000316,532.5256364999805,533.4922182001173,None,,,,,,,,,,,,,,,,,,,,,,,,,,,,,,001,2022-10-22_15h54.11.592,test9,2022.2.4,59.967893266602324,
,,,,,,,,1,nBack1Cond.xlsx,111,3,0.2,0.2,space,1,9,,,,,,,,,,,,,0,0,0,0,0,8,8,8,,,,,,,,,,,,,,,,,,,,,,,,,,,,,,,,,,,,,,,,,533.5099557000212,533.5099557000212,533.5099557000212,533.5099557000212,533.5099557000212,533.5099557000212,533.5099557000212,533.5099557000212,533.5099557000212,533.5099557000212,534.4919086999726,534.5251589999534,535.491704300046,space,0.38299599988386035,,,,,,,,,,,,,,,,,,,,,,,,,,,,,001,2022-10-22_15h54.11.592,test9,2022.2.4,59.967893266602324,
,,,,,,,,1,nBack1Cond.xlsx,111,8,0,-0.2,None,1,10,,,,,,,,,,,,,0,0,0,0,0,9,9,9,,,,,,,,,,,,,,,,,,,,,,,,,,,,,,,,,,,,,,,,,535.5084172000643,535.5084172000643,535.5084172000643,535.5084172000643,535.5084172000643,535.5084172000643,535.5084172000643,535.5084172000643,535.5084172000643,535.5084172000643,536.4918225000147,536.5084341999609,537.4915744001046,None,,,,,,,,,,,,,,,,,,,,,,,,,,,,,,001,2022-10-22_15h54.11.592,test9,2022.2.4,59.967893266602324,
,,,,,,,,1,nBack1Cond.xlsx,111,1,-0.2,0.2,None,1,11,,,,,,,,,,,,,0,0,0,0,0,10,10,10,,,,,,,,,,,,,,,,,,,,,,,,,,,,,,,,,,,,,,,,,537.5099128000438,537.5099128000438,537.5099128000438,537.5099128000438,537.5099128000438,537.5099128000438,537.5099128000438,537.5099128000438,537.5099128000438,537.5099128000438,538.4915257999673,538.5247760999482,539.4913546999451,None,,,,,,,,,,,,,,,,,,,,,,,,,,,,,,001,2022-10-22_15h54.11.592,test9,2022.2.4,59.967893266602324,
,,,,,,,,1,nBack1Cond.xlsx,111,2,0,0.2,None,1,12,,,,,,,,,,,,,0,0,0,0,0,11,11,11,,,,,,,,,,,,,,,,,,,,,,,,,,,,,,,,,,,,,,,,,539.5090991000179,539.5090991000179,539.5090991000179,539.5090991000179,539.5090991000179,539.5090991000179,539.5090991000179,539.5090991000179,539.5090991000179,539.5090991000179,540.4913933998905,540.5247178999707,541.4911038000137,None,,,,,,,,,,,,,,,,,,,,,,,,,,,,,,001,2022-10-22_15h54.11.592,test9,2022.2.4,59.967893266602324,
,,,,,,,,1,nBack1Cond.xlsx,111,4,-0.2,0,None,1,13,,,,,,,,,,,,,0,0,0,0,0,12,12,12,,,,,,,,,,,,,,,,,,,,,,,,,,,,,,,,,,,,,,,,,541.5077806999907,541.5077806999907,541.5077806999907,541.5077806999907,541.5077806999907,541.5077806999907,541.5077806999907,541.5077806999907,541.5077806999907,541.5077806999907,542.490973399952,542.5075761000626,543.4908881001174,None,,,,,,,,,,,,,,,,,,,,,,,,,,,,,,001,2022-10-22_15h54.11.592,test9,2022.2.4,59.967893266602324,
,,,,,,,,1,nBack1Cond.xlsx,111,4,-0.2,0,space,1,14,,,,,,,,,,,,,0,0,0,0,0,13,13,13,,,,,,,,,,,,,,,,,,,,,,,,,,,,,,,,,,,,,,,,,543.5074841999449,543.5074841999449,543.5074841999449,543.5074841999449,543.5074841999449,543.5074841999449,543.5074841999449,543.5074841999449,543.5074841999449,543.5074841999449,544.4906462000217,544.5072967000306,545.4905473000836,space,0.3043194997590035,,,,,,,,,,,,,,,,,,,,,,,,,,,,,001,2022-10-22_15h54.11.592,test9,2022.2.4,59.967893266602324,
,,,,,,,,1,nBack1Cond.xlsx,111,8,0,-0.2,None,1,15,,,,,,,,,,,,,0,0,0,0,0,14,14,14,,,,,,,,,,,,,,,,,,,,,,,,,,,,,,,,,,,,,,,,,545.5087753999978,545.5087753999978,545.5087753999978,545.5087753999978,545.5087753999978,545.5087753999978,545.5087753999978,545.5087753999978,545.5087753999978,545.5087753999978,546.4905238999054,546.5237481999211,547.4903665999882,None,,,,,,,,,,,,,,,,,,,,,,,,,,,,,,001,2022-10-22_15h54.11.592,test9,2022.2.4,59.967893266602324,
,,,,,,,,1,nBack1Cond.xlsx,111,5,0,0,None,1,16,,,,,,,,,,,,,0,0,0,0,0,15,15,15,,,,,,,,,,,,,,,,,,,,,,,,,,,,,,,,,,,,,,,,,547.5081970000174,547.5081970000174,547.5081970000174,547.5081970000174,547.5081970000174,547.5081970000174,547.5081970000174,547.5081970000174,547.5081970000174,547.5081970000174,548.4901487000752,548.5234350999817,549.4900356999133,None,,,,,,,,,,,,,,,,,,,,,,,,,,,,,,001,2022-10-22_15h54.11.592,test9,2022.2.4,59.967893266602324,
,,,,,,,,1,nBack1Cond.xlsx,111,5,0,0,space,1,17,,,,,,,,,,,,,0,0,0,0,0,16,16,16,,,,,,,,,,,,,,,,,,,,,,,,,,,,,,,,,,,,,,,,,549.5066434000619,549.5066434000619,549.5066434000619,549.5066434000619,549.5066434000619,549.5066434000619,549.5066434000619,549.5066434000619,549.5066434000619,549.5066434000619,550.4898532999214,550.5065041999333,551.4896090999246,space,0.33935329993255436,,,,,,,,,,,,,,,,,,,,,,,,,,,,,001,2022-10-22_15h54.11.592,test9,2022.2.4,59.967893266602324,
,,,,,,,,1,nBack1Cond.xlsx,111,1,-0.2,0.2,None,1,18,,,,,,,,,,,,,0,0,0,0,0,17,17,17,,,,,,,,,,,,,,,,,,,,,,,,,,,,,,,,,,,,,,,,,551.5062834001146,551.5062834001146,551.5062834001146,551.5062834001146,551.5062834001146,551.5062834001146,551.5062834001146,551.5062834001146,551.5062834001146,551.5062834001146,552.489666499896,552.5062468999531,553.4894612999633,None,,,,,,,,,,,,,,,,,,,,,,,,,,,,,,001,2022-10-22_15h54.11.592,test9,2022.2.4,59.967893266602324,
,,,,,,,,1,nBack1Cond.xlsx,111,3,0.2,0.2,None,1,19,,,,,,,,,,,,,0,0,0,0,0,18,18,18,,,,,,,,,,,,,,,,,,,,,,,,,,,,,,,,,,,,,,,,,553.5061896999832,553.5061896999832,553.5061896999832,553.5061896999832,553.5061896999832,553.5061896999832,553.5061896999832,553.5061896999832,553.5061896999832,553.5061896999832,554.4897807000671,554.5059086000547,555.4944376999047,None,,,,,,,,,,,,,,,,,,,,,,,,,,,,,,001,2022-10-22_15h54.11.592,test9,2022.2.4,59.967893266602324,
,,,,,,,,1,nBack1Cond.xlsx,111,6,0.2,0,None,1,20,,,,,,,,,,,,,0,0,0,0,0,19,19,19,,,,,,,,,,,,,,,,,,,,,,,,,,,,,,,,,,,,,,,,,555.5064089000225,555.5064089000225,555.5064089000225,555.5064089000225,555.5064089000225,555.5064089000225,555.5064089000225,555.5064089000225,555.5064089000225,555.5064089000225,556.4891049999278,556.5056922999211,557.4890610000584,None,,,,,,,,,,,,,,,,,,,,,,,,,,,,,,001,2022-10-22_15h54.11.592,test9,2022.2.4,59.967893266602324,
,,,,,,,,1,nBack1Cond.xlsx,111,1,-0.2,0.2,None,1,21,,,,,,,,,,,,,0,0,0,0,0,20,20,20,,,,,,,,,,,,,,,,,,,,,,,,,,,,,,,,,,,,,,,,,557.5075918999501,557.5075918999501,557.5075918999501,557.5075918999501,557.5075918999501,557.5075918999501,557.5075918999501,557.5075918999501,557.5075918999501,557.5075918999501,558.4890256000217,558.5222835999448,559.4887435999699,None,,,,,,,,,,,,,,,,,,,,,,,,,,,,,,001,2022-10-22_15h54.11.592,test9,2022.2.4,59.967893266602324,
,,,,,,,,1,nBack1Cond.xlsx,111,1,-0.2,0.2,space,1,22,,,,,,,,,,,,,0,0,0,0,0,21,21,21,,,,,,,,,,,,,,,,,,,,,,,,,,,,,,,,,,,,,,,,,559.5063674000558,559.5063674000558,559.5063674000558,559.5063674000558,559.5063674000558,559.5063674000558,559.5063674000558,559.5063674000558,559.5063674000558,559.5063674000558,560.4895506000612,560.5056318000425,561.4885098000523,space,0.3672743998467922,,,,,,,,,,,,,,,,,,,,,,,,,,,,,001,2022-10-22_15h54.11.592,test9,2022.2.4,59.967893266602324,
,,,,,,,,1,nBack1Cond.xlsx,111,1,-0.2,0.2,space,1,23,,,,,,,,,,,,,0,0,0,0,0,22,22,22,,,,,,,,,,,,,,,,,,,,,,,,,,,,,,,,,,,,,,,,,561.5063622000162,561.5063622000162,561.5063622000162,561.5063622000162,561.5063622000162,561.5063622000162,561.5063622000162,561.5063622000162,561.5063622000162,561.5063622000162,562.4884061000776,562.5215650999453,563.4881605000701,None,,,,,,,,,,,,,,,,,,,,,,,,,,,,,,001,2022-10-22_15h54.11.592,test9,2022.2.4,59.967893266602324,
,,,,,,,,1,nBack1Cond.xlsx,111,3,0.2,0.2,None,1,24,,,,,,,,,,,,,0,0,0,0,0,23,23,23,,,,,,,,,,,,,,,,,,,,,,,,,,,,,,,,,,,,,,,,,563.5057063000277,563.5057063000277,563.5057063000277,563.5057063000277,563.5057063000277,563.5057063000277,563.5057063000277,563.5057063000277,563.5057063000277,563.5057063000277,564.4883862999268,564.5046860999428,565.4880753001198,None,,,,,,,,,,,,,,,,,,,,,,,,,,,,,,001,2022-10-22_15h54.11.592,test9,2022.2.4,59.967893266602324,
,,,,,,,,1,nBack1Cond.xlsx,111,2,0,0.2,None,1,25,,,,,,,,,,,,,0,0,0,0,0,24,24,24,,,,,,,,,,,,,,,,,,,,,,,,,,,,,,,,,,,,,,,,,565.5046649000142,565.5046649000142,565.5046649000142,565.5046649000142,565.5046649000142,565.5046649000142,565.5046649000142,565.5046649000142,565.5046649000142,565.5046649000142,566.4893938999157,566.5058983000927,,None,,,,,,,,,,,,,,,,,,,,,,,,,,,,,,001,2022-10-22_15h54.11.592,test9,2022.2.4,59.967893266602324,
,,,,,,,,1,nBack1Cond.xlsx,111,1,-0.2,0.2,None,1,26,,,,,,,,,,,,,0,0,0,0,0,25,25,25,,,,,,,,,,,,,,,,,,,,,,,,,,,,,,,,,,,,,,,,,567.506597999949,567.506597999949,567.506597999949,567.506597999949,567.506597999949,567.506597999949,567.506597999949,567.506597999949,567.506597999949,567.506597999949,568.4876226999331,568.5207613001112,569.4874787000008,None,,,,,,,,,,,,,,,,,,,,,,,,,,,,,,001,2022-10-22_15h54.11.592,test9,2022.2.4,59.967893266602324,
,,,,,,,,1,nBack1Cond.xlsx,111,7,-0.2,-0.2,None,1,27,,,,,,,,,,,,,0,0,0,0,0,26,26,26,,,,,,,,,,,,,,,,,,,,,,,,,,,,,,,,,,,,,,,,,569.5045084001031,569.5045084001031,569.5045084001031,569.5045084001031,569.5045084001031,569.5045084001031,569.5045084001031,569.5045084001031,569.5045084001031,569.5045084001031,570.4872938001063,570.5039671999402,571.4871668000706,None,,,,,,,,,,,,,,,,,,,,,,,,,,,,,,001,2022-10-22_15h54.11.592,test9,2022.2.4,59.967893266602324,
,,,,,,,,1,nBack1Cond.xlsx,111,7,-0.2,-0.2,space,1,28,,,,,,,,,,,,,0,0,0,0,0,27,27,27,,,,,,,,,,,,,,,,,,,,,,,,,,,,,,,,,,,,,,,,,571.5038944000844,571.5038944000844,571.5038944000844,571.5038944000844,571.5038944000844,571.5038944000844,571.5038944000844,571.5038944000844,571.5038944000844,571.5038944000844,572.4874352999032,572.5039059999399,573.4869134000037,space,0.5719075999222696,,,,,,,,,,,,,,,,,,,,,,,,,,,,,001,2022-10-22_15h54.11.592,test9,2022.2.4,59.967893266602324,
,,,,,,,,1,nBack1Cond.xlsx,111,2,0,0.2,None,1,29,,,,,,,,,,,,,0,0,0,0,0,28,28,28,,,,,,,,,,,,,,,,,,,,,,,,,,,,,,,,,,,,,,,,,573.5036869000178,573.5036869000178,573.5036869000178,573.5036869000178,573.5036869000178,573.5036869000178,573.5036869000178,573.5036869000178,573.5036869000178,573.5036869000178,574.4869776999112,574.5034920000471,575.486576900119,None,,,,,,,,,,,,,,,,,,,,,,,,,,,,,,001,2022-10-22_15h54.11.592,test9,2022.2.4,59.967893266602324,
,,,,,,,,1,nBack1Cond.xlsx,111,6,0.2,0,None,1,30,,,,,,,,,,,,,0,0,0,0,0,29,29,29,,,,,,,,,,,,,,,,,,,,,,,,,,,,,,,,,,,,,,,,,575.5038254000247,575.5038254000247,575.5038254000247,575.5038254000247,575.5038254000247,575.5038254000247,575.5038254000247,575.5038254000247,575.5038254000247,575.5038254000247,576.4865097999573,576.5032516000792,577.4863927001134,None,,,,,,,,,,,,,,,,,,,,,,,,,,,,,,001,2022-10-22_15h54.11.592,test9,2022.2.4,59.967893266602324,
,,,,,,,,1,nBack1Cond.xlsx,111,4,-0.2,0,None,1,31,,,,,,,,,,,,,0,0,0,0,0,30,30,30,,,,,,,,,,,,,,,,,,,,,,,,,,,,,,,,,,,,,,,,,577.503674000036,577.503674000036,577.503674000036,577.503674000036,577.503674000036,577.503674000036,577.503674000036,577.503674000036,577.503674000036,577.503674000036,578.4867336999159,578.5028754000086,579.4862883000169,None,,,,,,,,,,,,,,,,,,,,,,,,,,,,,,001,2022-10-22_15h54.11.592,test9,2022.2.4,59.967893266602324,
,,,,,,,,1,nBack1Cond.xlsx,111,4,-0.2,0,space,1,32,,,,,,,,,,,,,0,0,0,0,0,31,31,31,,,,,,,,,,,,,,,,,,,,,,,,,,,,,,,,,,,,,,,,,579.5029215000104,579.5029215000104,579.5029215000104,579.5029215000104,579.5029215000104,579.5029215000104,579.5029215000104,579.5029215000104,579.5029215000104,579.5029215000104,580.4859446000773,580.5026362000499,581.4859009999782,space,0.5227479997556657,,,,,,,,,,,,,,,,,,,,,,,,,,,,,001,2022-10-22_15h54.11.592,test9,2022.2.4,59.967893266602324,
,,,,,,,,1,nBack1Cond.xlsx,111,2,0,0.2,None,1,33,,,,,,,,,,,,,0,0,0,0,0,32,32,32,,,,,,,,,,,,,,,,,,,,,,,,,,,,,,,,,,,,,,,,,581.5042971998919,581.5042971998919,581.5042971998919,581.5042971998919,581.5042971998919,581.5042971998919,581.5042971998919,581.5042971998919,581.5042971998919,581.5042971998919,582.4858323999215,582.5190270999447,583.4856555999722,None,,,,,,,,,,,,,,,,,,,,,,,,,,,,,,001,2022-10-22_15h54.11.592,test9,2022.2.4,59.967893266602324,
,,,,,,,,1,nBack1Cond.xlsx,111,9,0.2,-0.2,None,1,34,,,,,,,,,,,,,0,0,0,0,0,33,33,33,,,,,,,,,,,,,,,,,,,,,,,,,,,,,,,,,,,,,,,,,583.5022996999323,583.5022996999323,583.5022996999323,583.5022996999323,583.5022996999323,583.5022996999323,583.5022996999323,583.5022996999323,583.5022996999323,583.5022996999323,584.4854359000456,584.5022460999899,585.4852831000462,None,,,,,,,,,,,,,,,,,,,,,,,,,,,,,,001,2022-10-22_15h54.11.592,test9,2022.2.4,59.967893266602324,
,,,,,,,,1,nBack1Cond.xlsx,111,9,0.2,-0.2,space,1,35,,,,,,,,,,,,,0,0,0,0,0,34,34,34,,,,,,,,,,,,,,,,,,,,,,,,,,,,,,,,,,,,,,,,,585.5020518000238,585.5020518000238,585.5020518000238,585.5020518000238,585.5020518000238,585.5020518000238,585.5020518000238,585.5020518000238,585.5020518000238,585.5020518000238,586.4854709999636,586.5017832999583,587.4851190999616,space,0.30000439984723926,,,,,,,,,,,,,,,,,,,,,,,,,,,,,001,2022-10-22_15h54.11.592,test9,2022.2.4,59.967893266602324,
,,,,,,,,1,nBack1Cond.xlsx,111,3,0.2,0.2,None,1,36,,,,,,,,,,,,,0,0,0,0,0,35,35,35,,,,,,,,,,,,,,,,,,,,,,,,,,,,,,,,,,,,,,,,,587.5025035000872,587.5025035000872,587.5025035000872,587.5025035000872,587.5025035000872,587.5025035000872,587.5025035000872,587.5025035000872,587.5025035000872,587.5025035000872,588.484987200005,588.5015964999329,589.4848664999008,None,,,,,,,,,,,,,,,,,,,,,,,,,,,,,,001,2022-10-22_15h54.11.592,test9,2022.2.4,59.967893266602324,
,,,,,,,,1,nBack1Cond.xlsx,111,7,-0.2,-0.2,None,1,37,,,,,,,,,,,,,0,0,0,0,0,36,36,36,,,,,,,,,,,,,,,,,,,,,,,,,,,,,,,,,,,,,,,,,589.5029913000762,589.5029913000762,589.5029913000762,589.5029913000762,589.5029913000762,589.5029913000762,589.5029913000762,589.5029913000762,589.5029913000762,589.5029913000762,590.4846383000258,590.5181106000673,591.4846012999769,None,,,,,,,,,,,,,,,,,,,,,,,,,,,,,,001,2022-10-22_15h54.11.592,test9,2022.2.4,59.967893266602324,
,,,,,,,,1,nBack1Cond.xlsx,111,7,-0.2,-0.2,space,1,38,,,,,,,,,,,,,0,0,0,0,0,37,37,37,,,,,,,,,,,,,,,,,,,,,,,,,,,,,,,,,,,,,,,,,591.5025059999898,591.5025059999898,591.5025059999898,591.5025059999898,591.5025059999898,591.5025059999898,591.5025059999898,591.5025059999898,591.5025059999898,591.5025059999898,592.484491799958,592.517832600046,593.4842878000345,space,0.5721462999936193,,,,,,,,,,,,,,,,,,,,,,,,,,,,,001,2022-10-22_15h54.11.592,test9,2022.2.4,59.967893266602324,
,,,,,,,,1,nBack1Cond.xlsx,111,7,-0.2,-0.2,space,1,39,,,,,,,,,,,,,0,0,0,0,0,38,38,38,,,,,,,,,,,,,,,,,,,,,,,,,,,,,,,,,,,,,,,,,593.5023099998944,593.5023099998944,593.5023099998944,593.5023099998944,593.5023099998944,593.5023099998944,593.5023099998944,593.5023099998944,593.5023099998944,593.5023099998944,594.4841342000291,594.5178485000506,595.4839488998987,space,0.368967899819836,,,,,,,,,,,,,,,,,,,,,,,,,,,,,001,2022-10-22_15h54.11.592,test9,2022.2.4,59.967893266602324,
,,,,,,,,1,nBack1Cond.xlsx,111,6,0.2,0,None,1,40,,,,,,,,,,,,,0,0,0,0,0,39,39,39,,,,,,,,,,,,,,,,,,,,,,,,,,,,,,,,,,,,,,,,,595.5021110000089,595.5021110000089,595.5021110000089,595.5021110000089,595.5021110000089,595.5021110000089,595.5021110000089,595.5021110000089,595.5021110000089,595.5021110000089,596.4839248999488,596.5173617000692,597.4838165000547,None,,,,,,,,,,,,,,,,,,,,,,,,,,,,,,001,2022-10-22_15h54.11.592,test9,2022.2.4,59.967893266602324,
,,,,,,,,1,nBack1Cond.xlsx,111,6,0.2,0,space,1,41,,,,,,,,,,,,,0,0,0,0,0,40,40,40,,,,,,,,,,,,,,,,,,,,,,,,,,,,,,,,,,,,,,,,,597.5016449000686,597.5016449000686,597.5016449000686,597.5016449000686,597.5016449000686,597.5016449000686,597.5016449000686,597.5016449000686,597.5016449000686,597.5016449000686,598.4837068000343,598.5168967999052,599.4886201000772,space,0.34792659990489483,,,,,,,,,,,,,,,,,,,,,,,,,,,,,001,2022-10-22_15h54.11.592,test9,2022.2.4,59.967893266602324,
,,,,,,,,1,nBack1Cond.xlsx,111,1,-0.2,0.2,None,1,42,,,,,,,,,,,,,0,0,0,0,0,41,41,41,,,,,,,,,,,,,,,,,,,,,,,,,,,,,,,,,,,,,,,,,599.5062355000991,599.5062355000991,599.5062355000991,599.5062355000991,599.5062355000991,599.5062355000991,599.5062355000991,599.5062355000991,599.5062355000991,599.5062355000991,600.4835087999236,600.5167109000031,601.4832508000545,None,,,,,,,,,,,,,,,,,,,,,,,,,,,,,,001,2022-10-22_15h54.11.592,test9,2022.2.4,59.967893266602324,
,,,,,,,,1,nBack1Cond.xlsx,111,5,0,0,None,1,43,,,,,,,,,,,,,0,0,0,0,0,42,42,42,,,,,,,,,,,,,,,,,,,,,,,,,,,,,,,,,,,,,,,,,601.5166674000211,601.5166674000211,601.5166674000211,601.5166674000211,601.5166674000211,601.5166674000211,601.5166674000211,601.5166674000211,601.5166674000211,601.5166674000211,602.4831141999457,602.5172671000473,603.4830990000628,None,,,,,,,,,,,,,,,,,,,,,,,,,,,,,,001,2022-10-22_15h54.11.592,test9,2022.2.4,59.967893266602324,
,,,,,,,,1,nBack1Cond.xlsx,111,3,0.2,0.2,None,1,44,,,,,,,,,,,,,0,0,0,0,0,43,43,43,,,,,,,,,,,,,,,,,,,,,,,,,,,,,,,,,,,,,,,,,603.5164193999954,603.5164193999954,603.5164193999954,603.5164193999954,603.5164193999954,603.5164193999954,603.5164193999954,603.5164193999954,603.5164193999954,603.5164193999954,604.4828995999414,604.516242200043,605.4826766999904,None,,,,,,,,,,,,,,,,,,,,,,,,,,,,,,001,2022-10-22_15h54.11.592,test9,2022.2.4,59.967893266602324,
,,,,,,,,1,nBack1Cond.xlsx,111,1,-0.2,0.2,None,1,45,,,,,,,,,,,,,0,0,0,0,0,44,44,44,,,,,,,,,,,,,,,,,,,,,,,,,,,,,,,,,,,,,,,,,605.516195199918,605.516195199918,605.516195199918,605.516195199918,605.516195199918,605.516195199918,605.516195199918,605.516195199918,605.516195199918,605.516195199918,606.482667400036,606.5159289999865,607.482565900078,None,,,,,,,,,,,,,,,,,,,,,,,,,,,,,,001,2022-10-22_15h54.11.592,test9,2022.2.4,59.967893266602324,
,,,,,,,,1,nBack1Cond.xlsx,111,7,-0.2,-0.2,None,1,46,,,,,,,,,,,,,0,0,0,0,0,45,45,45,,,,,,,,,,,,,,,,,,,,,,,,,,,,,,,,,,,,,,,,,607.517687600106,607.517687600106,607.517687600106,607.517687600106,607.517687600106,607.517687600106,607.517687600106,607.517687600106,607.517687600106,607.517687600106,608.4992784000933,608.5334272999316,609.4989444999956,None,,,,,,,,,,,,,,,,,,,,,,,,,,,,,,001,2022-10-22_15h54.11.592,test9,2022.2.4,59.967893266602324,
,,,,,,,,1,nBack1Cond.xlsx,111,3,0.2,0.2,None,1,47,,,,,,,,,,,,,0,0,0,0,0,46,46,46,,,,,,,,,,,,,,,,,,,,,,,,,,,,,,,,,,,,,,,,,609.5172236000653,609.5172236000653,609.5172236000653,609.5172236000653,609.5172236000653,609.5172236000653,609.5172236000653,609.5172236000653,609.5172236000653,609.5172236000653,610.4988410999067,610.5320637999102,611.4986837001052,None,,,,,,,,,,,,,,,,,,,,,,,,,,,,,,001,2022-10-22_15h54.11.592,test9,2022.2.4,59.967893266602324,
,,,,,,,,1,nBack1Cond.xlsx,111,3,0.2,0.2,space,1,48,,,,,,,,,,,,,0,0,0,0,0,47,47,47,,,,,,,,,,,,,,,,,,,,,,,,,,,,,,,,,,,,,,,,,611.5164818998892,611.5164818998892,611.5164818998892,611.5164818998892,611.5164818998892,611.5164818998892,611.5164818998892,611.5164818998892,611.5164818998892,611.5164818998892,612.4985450999811,612.5318593000993,613.4982618000358,space,0.5231486998964101,,,,,,,,,,,,,,,,,,,,,,,,,,,,,001,2022-10-22_15h54.11.592,test9,2022.2.4,59.967893266602324,
,,,,,,,,1,nBack1Cond.xlsx,111,9,0.2,-0.2,None,1,49,,,,,,,,,,,,,0,0,0,0,0,48,48,48,,,,,,,,,,,,,,,,,,,,,,,,,,,,,,,,,,,,,,,,,613.5153143999632,613.5153143999632,613.5153143999632,613.5153143999632,613.5153143999632,613.5153143999632,613.5153143999632,613.5153143999632,613.5153143999632,613.5153143999632,614.4980770000257,614.51478149998,615.4980450998992,None,,,,,,,,,,,,,,,,,,,,,,,,,,,,,,001,2022-10-22_15h54.11.592,test9,2022.2.4,59.967893266602324,
,,,,,,,,1,nBack1Cond.xlsx,111,7,-0.2,-0.2,None,1,50,,,,,,,,,,,,,0,0,0,0,0,49,49,49,,,,,,,,,,,,,,,,,,,,,,,,,,,,,,,,,,,,,,,,,615.5148312998936,615.5148312998936,615.5148312998936,615.5148312998936,615.5148312998936,615.5148312998936,615.5148312998936,615.5148312998936,615.5148312998936,615.5148312998936,616.4980454000179,616.5145588000305,617.4977949000895,None,,,,,,,,,,,,,,,,,,,,,,,,,,,,,,001,2022-10-22_15h54.11.592,test9,2022.2.4,59.967893266602324,
,,,,,,,,1,nBack1Cond.xlsx,111,5,0,0,None,1,51,,,,,,,,,,,,,0,0,0,0,0,50,50,50,,,,,,,,,,,,,,,,,,,,,,,,,,,,,,,,,,,,,,,,,617.5154494999442,617.5154494999442,617.5154494999442,617.5154494999442,617.5154494999442,617.5154494999442,617.5154494999442,617.5154494999442,617.5154494999442,617.5154494999442,618.4978585001081,618.5142977000214,619.4976778000128,None,,,,,,,,,,,,,,,,,,,,,,,,,,,,,,001,2022-10-22_15h54.11.592,test9,2022.2.4,59.967893266602324,
,,,,,,,,1,nBack1Cond.xlsx,111,8,0,-0.2,None,1,52,,,,,,,,,,,,,0,0,0,0,0,51,51,51,,,,,,,,,,,,,,,,,,,,,,,,,,,,,,,,,,,,,,,,,619.5143887000158,619.5143887000158,619.5143887000158,619.5143887000158,619.5143887000158,619.5143887000158,619.5143887000158,619.5143887000158,619.5143887000158,619.5143887000158,620.4806564000901,620.5195816999767,621.4805393998977,None,,,,,,,,,,,,,,,,,,,,,,,,,,,,,,001,2022-10-22_15h54.11.592,test9,2022.2.4,59.967893266602324,
,,,,,,,,1,nBack1Cond.xlsx,111,8,0,-0.2,space,1,53,,,,,,,,,,,,,0,0,0,0,0,52,52,52,,,,,,,,,,,,,,,,,,,,,,,,,,,,,,,,,,,,,,,,,621.5138306000736,621.5138306000736,621.5138306000736,621.5138306000736,621.5138306000736,621.5138306000736,621.5138306000736,621.5138306000736,621.5138306000736,621.5138306000736,622.4972697999328,622.5139295998961,623.4970907999668,space,0.5596333998255432,,,,,,,,,,,,,,,,,,,,,,,,,,,,,001,2022-10-22_15h54.11.592,test9,2022.2.4,59.967893266602324,
,,,,,,,,1,nBack1Cond.xlsx,111,7,-0.2,-0.2,None,1,54,,,,,,,,,,,,,0,0,0,0,0,53,53,53,,,,,,,,,,,,,,,,,,,,,,,,,,,,,,,,,,,,,,,,,623.5151720999274,623.5151720999274,623.5151720999274,623.5151720999274,623.5151720999274,623.5151720999274,623.5151720999274,623.5151720999274,623.5151720999274,623.5151720999274,624.4973037000746,624.5308592999354,625.4967318999115,None,,,,,,,,,,,,,,,,,,,,,,,,,,,,,,001,2022-10-22_15h54.11.592,test9,2022.2.4,59.967893266602324,
,,,,,,,,1,nBack1Cond.xlsx,111,4,-0.2,0,None,1,55,,,,,,,,,,,,,0,0,0,0,0,54,54,54,,,,,,,,,,,,,,,,,,,,,,,,,,,,,,,,,,,,,,,,,625.5141928999219,625.5141928999219,625.5141928999219,625.5141928999219,625.5141928999219,625.5141928999219,625.5141928999219,625.5141928999219,625.5141928999219,625.5141928999219,626.4966796000954,626.5133007999975,627.4964413999114,None,,,,,,,,,,,,,,,,,,,,,,,,,,,,,,001,2022-10-22_15h54.11.592,test9,2022.2.4,59.967893266602324,
,,,,,,,,1,nBack1Cond.xlsx,111,5,0,0,None,1,56,,,,,,,,,,,,,0,0,0,0,0,55,55,55,,,,,,,,,,,,,,,,,,,,,,,,,,,,,,,,,,,,,,,,,627.5138995000161,627.5138995000161,627.5138995000161,627.5138995000161,627.5138995000161,627.5138995000161,627.5138995000161,627.5138995000161,627.5138995000161,627.5138995000161,628.496416100068,628.5130475000478,629.4963060999289,None,,,,,,,,,,,,,,,,,,,,,,,,,,,,,,001,2022-10-22_15h54.11.592,test9,2022.2.4,59.967893266602324,
,,,,,,,,1,nBack1Cond.xlsx,111,5,0,0,space,1,57,,,,,,,,,,,,,0,0,0,0,0,56,56,56,,,,,,,,,,,,,,,,,,,,,,,,,,,,,,,,,,,,,,,,,629.5140732000582,629.5140732000582,629.5140732000582,629.5140732000582,629.5140732000582,629.5140732000582,629.5140732000582,629.5140732000582,629.5140732000582,629.5140732000582,630.4962156000547,630.5294464000035,631.4959843000397,space,0.4265797999687493,,,,,,,,,,,,,,,,,,,,,,,,,,,,,001,2022-10-22_15h54.11.592,test9,2022.2.4,59.967893266602324,
,,,,,,,,1,nBack1Cond.xlsx,111,2,0,0.2,None,1,58,,,,,,,,,,,,,0,0,0,0,0,57,57,57,,,,,,,,,,,,,,,,,,,,,,,,,,,,,,,,,,,,,,,,,631.5138924999628,631.5138924999628,631.5138924999628,631.5138924999628,631.5138924999628,631.5138924999628,631.5138924999628,631.5138924999628,631.5138924999628,631.5138924999628,632.4960173999425,632.529185499996,633.4957723999396,None,,,,,,,,,,,,,,,,,,,,,,,,,,,,,,001,2022-10-22_15h54.11.592,test9,2022.2.4,59.967893266602324,
,,,,,,,,1,nBack1Cond.xlsx,111,2,0,0.2,space,1,59,,,,,,,,,,,,,0,0,0,0,0,58,58,58,,,,,,,,,,,,,,,,,,,,,,,,,,,,,,,,,,,,,,,,,633.5136337000877,633.5136337000877,633.5136337000877,633.5136337000877,633.5136337000877,633.5136337000877,633.5136337000877,633.5136337000877,633.5136337000877,633.5136337000877,634.4957324001007,634.5290242000483,635.4954508999363,space,0.339929899899289,,,,,,,,,,,,,,,,,,,,,,,,,,,,,001,2022-10-22_15h54.11.592,test9,2022.2.4,59.967893266602324,
,,,,,,,,1,nBack1Cond.xlsx,111,6,0.2,0,None,1,60,,,,,,,,,,,,,0,0,0,0,0,59,59,59,,,,,,,,,,,,,,,,,,,,,,,,,,,,,,,,,,,,,,,,,635.5125669001136,635.5125669001136,635.5125669001136,635.5125669001136,635.5125669001136,635.5125669001136,635.5125669001136,635.5125669001136,635.5125669001136,635.5125669001136,636.4955082999077,636.5120631000027,637.4952046999242,None,,,,,,,,,,,,,,,,,,,,,,,,,,,,,,001,2022-10-22_15h54.11.592,test9,2022.2.4,59.967893266602324,
,,,,,,,,1,nBack1Cond.xlsx,111,2,0,0.2,None,1,61,,,,,,,,,,,,,0,0,0,0,0,60,60,60,,,,,,,,,,,,,,,,,,,,,,,,,,,,,,,,,,,,,,,,,637.5123874999117,637.5123874999117,637.5123874999117,637.5123874999117,637.5123874999117,637.5123874999117,637.5123874999117,637.5123874999117,637.5123874999117,637.5123874999117,638.4951917999424,638.5118170001078,639.4949620999396,None,,,,,,,,,,,,,,,,,,,,,,,,,,,,,,001,2022-10-22_15h54.11.592,test9,2022.2.4,59.967893266602324,
,,,,,,,,1,nBack1Cond.xlsx,111,2,0,0.2,space,1,62,,,,,,,,,,,,,0,0,0,0,0,61,61,61,,,,,,,,,,,,,,,,,,,,,,,,,,,,,,,,,,,,,,,,,639.5123324000742,639.5123324000742,639.5123324000742,639.5123324000742,639.5123324000742,639.5123324000742,639.5123324000742,639.5123324000742,639.5123324000742,639.5123324000742,640.4948970999103,640.5115175000392,641.4947458999231,space,0.3675015999469906,,,,,,,,,,,,,,,,,,,,,,,,,,,,,001,2022-10-22_15h54.11.592,test9,2022.2.4,59.967893266602324,
,,,,,,,,1,nBack1Cond.xlsx,111,5,0,0,None,1,63,,,,,,,,,,,,,0,0,0,0,0,62,62,62,,,,,,,,,,,,,,,,,,,,,,,,,,,,,,,,,,,,,,,,,641.512445300119,641.512445300119,641.512445300119,641.512445300119,641.512445300119,641.512445300119,641.512445300119,641.512445300119,641.512445300119,641.512445300119,642.4944869999308,642.5278201999608,643.4944438000675,None,,,,,,,,,,,,,,,,,,,,,,,,,,,,,,001,2022-10-22_15h54.11.592,test9,2022.2.4,59.967893266602324,
,,,,,,,,1,nBack1Cond.xlsx,111,5,0,0,space,1,64,,,,,,,,,,,,,0,0,0,0,0,63,63,63,,,,,,,,,,,,,,,,,,,,,,,,,,,,,,,,,,,,,,,,,643.5114297000691,643.5114297000691,643.5114297000691,643.5114297000691,643.5114297000691,643.5114297000691,643.5114297000691,643.5114297000691,643.5114297000691,643.5114297000691,644.4943933000322,644.5109244000632,645.4943846000824,space,0.5475776998791844,,,,,,,,,,,,,,,,,,,,,,,,,,,,,001,2022-10-22_15h54.11.592,test9,2022.2.4,59.967893266602324,
,,,,,,,,1,nBack1Cond.xlsx,111,4,-0.2,0,None,1,65,,,,,,,,,,,,,0,0,0,0,0,64,64,64,,,,,,,,,,,,,,,,,,,,,,,,,,,,,,,,,,,,,,,,,645.5114635000937,645.5114635000937,645.5114635000937,645.5114635000937,645.5114635000937,645.5114635000937,645.5114635000937,645.5114635000937,645.5114635000937,645.5114635000937,646.4939780000132,646.5108203999698,647.4940035999753,None,,,,,,,,,,,,,,,,,,,,,,,,,,,,,,001,2022-10-22_15h54.11.592,test9,2022.2.4,59.967893266602324,
,,,,,,,,1,nBack1Cond.xlsx,111,7,-0.2,-0.2,None,1,66,,,,,,,,,,,,,0,0,0,0,0,65,65,65,,,,,,,,,,,,,,,,,,,,,,,,,,,,,,,,,,,,,,,,,647.5117975999601,647.5117975999601,647.5117975999601,647.5117975999601,647.5117975999601,647.5117975999601,647.5117975999601,647.5117975999601,647.5117975999601,647.5117975999601,648.4939013998955,648.527261900017,649.493686000118,None,,,,,,,,,,,,,,,,,,,,,,,,,,,,,,001,2022-10-22_15h54.11.592,test9,2022.2.4,59.967893266602324,
,,,,,,,,1,nBack1Cond.xlsx,111,8,0,-0.2,None,1,67,,,,,,,,,,,,,0,0,0,0,0,66,66,66,,,,,,,,,,,,,,,,,,,,,,,,,,,,,,,,,,,,,,,,,649.5106027000584,649.5106027000584,649.5106027000584,649.5106027000584,649.5106027000584,649.5106027000584,649.5106027000584,649.5106027000584,649.5106027000584,649.5106027000584,650.4935568999499,650.5101481999736,651.4934127999004,None,,,,,,,,,,,,,,,,,,,,,,,,,,,,,,001,2022-10-22_15h54.11.592,test9,2022.2.4,59.967893266602324,
,,,,,,,,1,nBack1Cond.xlsx,111,8,0,-0.2,space,1,68,,,,,,,,,,,,,0,0,0,0,0,67,67,67,,,,,,,,,,,,,,,,,,,,,,,,,,,,,,,,,,,,,,,,,651.5115126001183,651.5115126001183,651.5115126001183,651.5115126001183,651.5115126001183,651.5115126001183,651.5115126001183,651.5115126001183,651.5115126001183,651.5115126001183,652.4933362999,652.5265194000676,653.4932095000986,space,0.5097825999837369,,,,,,,,,,,,,,,,,,,,,,,,,,,,,001,2022-10-22_15h54.11.592,test9,2022.2.4,59.967893266602324,
,,,,,,,,1,nBack1Cond.xlsx,111,5,0,0,None,1,69,,,,,,,,,,,,,0,0,0,0,0,68,68,68,,,,,,,,,,,,,,,,,,,,,,,,,,,,,,,,,,,,,,,,,653.5105651998892,653.5105651998892,653.5105651998892,653.5105651998892,653.5105651998892,653.5105651998892,653.5105651998892,653.5105651998892,653.5105651998892,653.5105651998892,654.4929710000288,654.5096509000286,655.493022199953,None,,,,,,,,,,,,,,,,,,,,,,,,,,,,,,001,2022-10-22_15h54.11.592,test9,2022.2.4,59.967893266602324,
,,,,,,,,1,nBack1Cond.xlsx,111,7,-0.2,-0.2,None,1,70,,,,,,,,,,,,,0,0,0,0,0,69,69,69,,,,,,,,,,,,,,,,,,,,,,,,,,,,,,,,,,,,,,,,,655.5116266999394,655.5116266999394,655.5116266999394,655.5116266999394,655.5116266999394,655.5116266999394,655.5116266999394,655.5116266999394,655.5116266999394,655.5116266999394,656.4927358999848,656.5259728000965,657.4926803000271,None,,,,,,,,,,,,,,,,,,,,,,,,,,,,,,001,2022-10-22_15h54.11.592,test9,2022.2.4,59.967893266602324,
,,,,,,,,1,nBack1Cond.xlsx,111,9,0.2,-0.2,None,1,71,,,,,,,,,,,,,0,0,0,0,0,70,70,70,,,,,,,,,,,,,,,,,,,,,,,,,,,,,,,,,,,,,,,,,657.5093219000846,657.5093219000846,657.5093219000846,657.5093219000846,657.5093219000846,657.5093219000846,657.5093219000846,657.5093219000846,657.5093219000846,657.5093219000846,658.4924620001111,658.5115225999616,659.4922162001021,None,,,,,,,,,,,,,,,,,,,,,,,,,,,,,,001,2022-10-22_15h54.11.592,test9,2022.2.4,59.967893266602324,
,,,,,,,,1,nBack1Cond.xlsx,111,3,0.2,0.2,None,1,72,,,,,,,,,,,,,0,0,0,0,0,71,71,71,,,,,,,,,,,,,,,,,,,,,,,,,,,,,,,,,,,,,,,,,659.5097074001096,659.5097074001096,659.5097074001096,659.5097074001096,659.5097074001096,659.5097074001096,659.5097074001096,659.5097074001096,659.5097074001096,659.5097074001096,660.4941978999414,660.511149100028,,None,,,,,,,,,,,,,,,,,,,,,,,,,,,,,,001,2022-10-22_15h54.11.592,test9,2022.2.4,59.967893266602324,
,,,,,,,,1,nBack1Cond.xlsx,111,3,0.2,0.2,space,1,73,,,,,,,,,,,,,0,0,0,0,0,72,72,72,,,,,,,,,,,,,,,,,,,,,,,,,,,,,,,,,,,,,,,,,661.5095774000511,661.5095774000511,661.5095774000511,661.5095774000511,661.5095774000511,661.5095774000511,661.5095774000511,661.5095774000511,661.5095774000511,661.5095774000511,662.4920771000907,662.5086695998907,663.4919356999453,space,0.4227805999107659,,,,,,,,,,,,,,,,,,,,,,,,,,,,,001,2022-10-22_15h54.11.592,test9,2022.2.4,59.967893266602324,
,,,,,,,,1,nBack1Cond.xlsx,111,7,-0.2,-0.2,None,1,74,,,,,,,,,,,,,0,0,0,0,0,73,73,73,,,,,,,,,,,,,,,,,,,,,,,,,,,,,,,,,,,,,,,,,663.5100622000173,663.5100622000173,663.5100622000173,663.5100622000173,663.5100622000173,663.5100622000173,663.5100622000173,663.5100622000173,663.5100622000173,663.5100622000173,664.4916948999744,664.5249395999126,665.4916491000913,None,,,,,,,,,,,,,,,,,,,,,,,,,,,,,,001,2022-10-22_15h54.11.592,test9,2022.2.4,59.967893266602324,
,,,,,,,,1,nBack1Cond.xlsx,111,1,-0.2,0.2,None,1,75,,,,,,,,,,,,,0,0,0,0,0,74,74,74,,,,,,,,,,,,,,,,,,,,,,,,,,,,,,,,,,,,,,,,,665.5098059000447,665.5098059000447,665.5098059000447,665.5098059000447,665.5098059000447,665.5098059000447,665.5098059000447,665.5098059000447,665.5098059000447,665.5098059000447,666.4914218001068,666.5248114001006,667.491381800035,None,,,,,,,,,,,,,,,,,,,,,,,,,,,,,,001,2022-10-22_15h54.11.592,test9,2022.2.4,59.967893266602324,
,,,,,,,,1,nBack1Cond.xlsx,111,3,0.2,0.2,None,1,76,,,,,,,,,,,,,0,0,0,0,0,75,75,75,,,,,,,,,,,,,,,,,,,,,,,,,,,,,,,,,,,,,,,,,667.5085936998948,667.5085936998948,667.5085936998948,667.5085936998948,667.5085936998948,667.5085936998948,667.5085936998948,667.5085936998948,667.5085936998948,667.5085936998948,668.4911736999638,668.507904099999,669.4911352000199,None,,,,,,,,,,,,,,,,,,,,,,,,,,,,,,001,2022-10-22_15h54.11.592,test9,2022.2.4,59.967893266602324,
,,,,,,,,1,nBack1Cond.xlsx,111,5,0,0,None,1,77,,,,,,,,,,,,,0,0,0,0,0,76,76,76,,,,,,,,,,,,,,,,,,,,,,,,,,,,,,,,,,,,,,,,,669.5082592999097,669.5082592999097,669.5082592999097,669.5082592999097,669.5082592999097,669.5082592999097,669.5082592999097,669.5082592999097,669.5082592999097,669.5082592999097,670.4909026001114,670.5075298999436,671.4909592999611,None,,,,,,,,,,,,,,,,,,,,,,,,,,,,,,001,2022-10-22_15h54.11.592,test9,2022.2.4,59.967893266602324,
,,,,,,,,1,nBack1Cond.xlsx,111,1,-0.2,0.2,None,1,78,,,,,,,,,,,,,0,0,0,0,0,77,77,77,,,,,,,,,,,,,,,,,,,,,,,,,,,,,,,,,,,,,,,,,671.5075306000654,671.5075306000654,671.5075306000654,671.5075306000654,671.5075306000654,671.5075306000654,671.5075306000654,671.5075306000654,671.5075306000654,671.5075306000654,672.4908414999954,672.507285800064,673.4906566001009,None,,,,,,,,,,,,,,,,,,,,,,,,,,,,,,001,2022-10-22_15h54.11.592,test9,2022.2.4,59.967893266602324,
,,,,,,,,1,nBack1Cond.xlsx,111,6,0.2,0,None,1,79,,,,,,,,,,,,,0,0,0,0,0,78,78,78,,,,,,,,,,,,,,,,,,,,,,,,,,,,,,,,,,,,,,,,,673.5072798999026,673.5072798999026,673.5072798999026,673.5072798999026,673.5072798999026,673.5072798999026,673.5072798999026,673.5072798999026,673.5072798999026,673.5072798999026,674.4904712000862,674.5071368000936,675.4903190000914,None,,,,,,,,,,,,,,,,,,,,,,,,,,,,,,001,2022-10-22_15h54.11.592,test9,2022.2.4,59.967893266602324,
,,,,,,,,1,nBack1Cond.xlsx,111,6,0.2,0,space,1,80,,,,,,,,,,,,,0,0,0,0,0,79,79,79,,,,,,,,,,,,,,,,,,,,,,,,,,,,,,,,,,,,,,,,,675.5088857000228,675.5088857000228,675.5088857000228,675.5088857000228,675.5088857000228,675.5088857000228,675.5088857000228,675.5088857000228,675.5088857000228,675.5088857000228,676.4902204999235,676.5236043999903,677.4899967999663,space,0.35464829998090863,,,,,,,,,,,,,,,,,,,,,,,,,,,,,001,2022-10-22_15h54.11.592,test9,2022.2.4,59.967893266602324,
,,,,,,,,1,nBack1Cond.xlsx,111,7,-0.2,-0.2,None,1,81,,,,,,,,,,,,,0,0,0,0,0,80,80,80,,,,,,,,,,,,,,,,,,,,,,,,,,,,,,,,,,,,,,,,,677.5080458999146,677.5080458999146,677.5080458999146,677.5080458999146,677.5080458999146,677.5080458999146,677.5080458999146,677.5080458999146,677.5080458999146,677.5080458999146,678.4899089001119,678.5232653000858,679.4896806001198,None,,,,,,,,,,,,,,,,,,,,,,,,,,,,,,001,2022-10-22_15h54.11.592,test9,2022.2.4,59.967893266602324,
,,,,,,,,1,nBack1Cond.xlsx,111,7,-0.2,-0.2,space,1,82,,,,,,,,,,,,,0,0,0,0,0,81,81,81,,,,,,,,,,,,,,,,,,,,,,,,,,,,,,,,,,,,,,,,,679.5074326000176,679.5074326000176,679.5074326000176,679.5074326000176,679.5074326000176,679.5074326000176,679.5074326000176,679.5074326000176,679.5074326000176,679.5074326000176,680.4902774998918,680.5062526999973,681.4894870000426,space,0.5463383998721838,,,,,,,,,,,,,,,,,,,,,,,,,,,,,001,2022-10-22_15h54.11.592,test9,2022.2.4,59.967893266602324,
,,,,,,,,1,nBack1Cond.xlsx,111,7,-0.2,-0.2,space,1,83,,,,,,,,,,,,,0,0,0,0,0,82,82,82,,,,,,,,,,,,,,,,,,,,,,,,,,,,,,,,,,,,,,,,,681.5073251998983,681.5073251998983,681.5073251998983,681.5073251998983,681.5073251998983,681.5073251998983,681.5073251998983,681.5073251998983,681.5073251998983,681.5073251998983,682.4895554000977,682.5226622000337,683.4892214001156,space,0.2975505997892469,,,,,,,,,,,,,,,,,,,,,,,,,,,,,001,2022-10-22_15h54.11.592,test9,2022.2.4,59.967893266602324,
,,,,,,,,1,nBack1Cond.xlsx,111,3,0.2,0.2,None,1,84,,,,,,,,,,,,,0,0,0,0,0,83,83,83,,,,,,,,,,,,,,,,,,,,,,,,,,,,,,,,,,,,,,,,,683.5078807000536,683.5078807000536,683.5078807000536,683.5078807000536,683.5078807000536,683.5078807000536,683.5078807000536,683.5078807000536,683.5078807000536,683.5078807000536,684.4891844000667,684.5224983000662,685.4890497999731,None,,,,,,,,,,,,,,,,,,,,,,,,,,,,,,001,2022-10-22_15h54.11.592,test9,2022.2.4,59.967893266602324,
,,,,,,,,1,nBack1Cond.xlsx,111,9,0.2,-0.2,None,1,85,,,,,,,,,,,,,0,0,0,0,0,84,84,84,,,,,,,,,,,,,,,,,,,,,,,,,,,,,,,,,,,,,,,,,685.5074394999538,685.5074394999538,685.5074394999538,685.5074394999538,685.5074394999538,685.5074394999538,685.5074394999538,685.5074394999538,685.5074394999538,685.5074394999538,686.4888516999781,686.522256199969,687.4887632001191,None,,,,,,,,,,,,,,,,,,,,,,,,,,,,,,001,2022-10-22_15h54.11.592,test9,2022.2.4,59.967893266602324,
,,,,,,,,1,nBack1Cond.xlsx,111,9,0.2,-0.2,space,1,86,,,,,,,,,,,,,0,0,0,0,0,85,85,85,,,,,,,,,,,,,,,,,,,,,,,,,,,,,,,,,,,,,,,,,687.5064405000303,687.5064405000303,687.5064405000303,687.5064405000303,687.5064405000303,687.5064405000303,687.5064405000303,687.5064405000303,687.5064405000303,687.5064405000303,688.488784099929,688.5051826001145,689.4885495998897,space,0.34292569989338517,,,,,,,,,,,,,,,,,,,,,,,,,,,,,001,2022-10-22_15h54.11.592,test9,2022.2.4,59.967893266602324,
,,,,,,,,1,nBack1Cond.xlsx,111,2,0,0.2,None,1,87,,,,,,,,,,,,,0,0,0,0,0,86,86,86,,,,,,,,,,,,,,,,,,,,,,,,,,,,,,,,,,,,,,,,,689.5062907000538,689.5062907000538,689.5062907000538,689.5062907000538,689.5062907000538,689.5062907000538,689.5062907000538,689.5062907000538,689.5062907000538,689.5062907000538,690.488401300041,690.5217629999388,691.488221900072,None,,,,,,,,,,,,,,,,,,,,,,,,,,,,,,001,2022-10-22_15h54.11.592,test9,2022.2.4,59.967893266602324,
,,,,,,,,1,nBack1Cond.xlsx,111,4,-0.2,0,None,1,88,,,,,,,,,,,,,0,0,0,0,0,87,87,87,,,,,,,,,,,,,,,,,,,,,,,,,,,,,,,,,,,,,,,,,691.5048390999436,691.5048390999436,691.5048390999436,691.5048390999436,691.5048390999436,691.5048390999436,691.5048390999436,691.5048390999436,691.5048390999436,691.5048390999436,692.4887272000778,692.5047295000404,693.4878960999195,None,,,,,,,,,,,,,,,,,,,,,,,,,,,,,,001,2022-10-22_15h54.11.592,test9,2022.2.4,59.967893266602324,
,,,,,,,,1,nBack1Cond.xlsx,111,4,-0.2,0,space,1,89,,,,,,,,,,,,,0,0,0,0,0,88,88,88,,,,,,,,,,,,,,,,,,,,,,,,,,,,,,,,,,,,,,,,,693.5050135001075,693.5050135001075,693.5050135001075,693.5050135001075,693.5050135001075,693.5050135001075,693.5050135001075,693.5050135001075,693.5050135001075,693.5050135001075,694.4881518001202,694.5049119000323,695.4877053000964,space,0.5344342000316828,,,,,,,,,,,,,,,,,,,,,,,,,,,,,001,2022-10-22_15h54.11.592,test9,2022.2.4,59.967893266602324,
,,,,,,,,1,nBack1Cond.xlsx,111,6,0.2,0,None,1,90,,,,,,,,,,,,,0,0,0,0,0,89,89,89,,,,,,,,,,,,,,,,,,,,,,,,,,,,,,,,,,,,,,,,,695.5059229999315,695.5059229999315,695.5059229999315,695.5059229999315,695.5059229999315,695.5059229999315,695.5059229999315,695.5059229999315,695.5059229999315,695.5059229999315,696.4875409000088,696.5209665999282,697.487437899923,None,,,,,,,,,,,,,,,,,,,,,,,,,,,,,,001,2022-10-22_15h54.11.592,test9,2022.2.4,59.967893266602324,
,,,,,,,,1,nBack1Cond.xlsx,111,2,0,0.2,None,1,91,,,,,,,,,,,,,0,0,0,0,0,90,90,90,,,,,,,,,,,,,,,,,,,,,,,,,,,,,,,,,,,,,,,,,697.5060010000598,697.5060010000598,697.5060010000598,697.5060010000598,697.5060010000598,697.5060010000598,697.5060010000598,697.5060010000598,697.5060010000598,697.5060010000598,698.4873595999088,698.5206699001137,699.4871696000919,None,,,,,,,,,,,,,,,,,,,,,,,,,,,,,,001,2022-10-22_15h54.11.592,test9,2022.2.4,59.967893266602324,
,,,,,,,,1,nBack1Cond.xlsx,111,7,-0.2,-0.2,None,1,92,,,,,,,,,,,,,0,0,0,0,0,91,91,91,,,,,,,,,,,,,,,,,,,,,,,,,,,,,,,,,,,,,,,,,699.5039854999632,699.5039854999632,699.5039854999632,699.5039854999632,699.5039854999632,699.5039854999632,699.5039854999632,699.5039854999632,699.5039854999632,699.5039854999632,700.4878179000225,700.5038266999181,701.4866287000477,None,,,,,,,,,,,,,,,,,,,,,,,,,,,,,,001,2022-10-22_15h54.11.592,test9,2022.2.4,59.967893266602324,
,,,,,,,,1,nBack1Cond.xlsx,111,7,-0.2,-0.2,space,1,93,,,,,,,,,,,,,0,0,0,0,0,92,92,92,,,,,,,,,,,,,,,,,,,,,,,,,,,,,,,,,,,,,,,,,701.5033674000297,701.5033674000297,701.5033674000297,701.5033674000297,701.5033674000297,701.5033674000297,701.5033674000297,701.5033674000297,701.5033674000297,701.5033674000297,702.4868463000748,702.5034223000985,703.4865725999698,space,0.552096099825576,,,,,,,,,,,,,,,,,,,,,,,,,,,,,001,2022-10-22_15h54.11.592,test9,2022.2.4,59.967893266602324,
,,,,,,,,1,nBack1Cond.xlsx,111,1,-0.2,0.2,None,1,94,,,,,,,,,,,,,0,0,0,0,0,93,93,93,,,,,,,,,,,,,,,,,,,,,,,,,,,,,,,,,,,,,,,,,703.5036993999965,703.5036993999965,703.5036993999965,703.5036993999965,703.5036993999965,703.5036993999965,703.5036993999965,703.5036993999965,703.5036993999965,703.5036993999965,704.4867277999874,704.5031196000054,705.4867350000422,None,,,,,,,,,,,,,,,,,,,,,,,,,,,,,,001,2022-10-22_15h54.11.592,test9,2022.2.4,59.967893266602324,
,,,,,,,,1,nBack1Cond.xlsx,111,2,0,0.2,None,1,95,,,,,,,,,,,,,0,0,0,0,0,94,94,94,,,,,,,,,,,,,,,,,,,,,,,,,,,,,,,,,,,,,,,,,705.503217499936,705.503217499936,705.503217499936,705.503217499936,705.503217499936,705.503217499936,705.503217499936,705.503217499936,705.503217499936,705.503217499936,706.4862410998903,706.5029102000408,707.4861117000692,None,,,,,,,,,,,,,,,,,,,,,,,,,,,,,,001,2022-10-22_15h54.11.592,test9,2022.2.4,59.967893266602324,
,,,,,,,,1,nBack1Cond.xlsx,111,3,0.2,0.2,None,1,96,,,,,,,,,,,,,0,0,0,0,0,95,95,95,,,,,,,,,,,,,,,,,,,,,,,,,,,,,,,,,,,,,,,,,707.5042896000668,707.5042896000668,707.5042896000668,707.5042896000668,707.5042896000668,707.5042896000668,707.5042896000668,707.5042896000668,707.5042896000668,707.5042896000668,708.4860233999789,708.5194405000657,709.48595319991,None,,,,,,,,,,,,,,,,,,,,,,,,,,,,,,001,2022-10-22_15h54.11.592,test9,2022.2.4,59.967893266602324,
,,,,,,,,1,nBack1Cond.xlsx,111,1,-0.2,0.2,None,1,97,,,,,,,,,,,,,0,0,0,0,0,96,96,96,,,,,,,,,,,,,,,,,,,,,,,,,,,,,,,,,,,,,,,,,709.5026630999055,709.5026630999055,709.5026630999055,709.5026630999055,709.5026630999055,709.5026630999055,709.5026630999055,709.5026630999055,709.5026630999055,709.5026630999055,710.4859233999159,710.5024218000472,711.4856529999524,None,,,,,,,,,,,,,,,,,,,,,,,,,,,,,,001,2022-10-22_15h54.11.592,test9,2022.2.4,59.967893266602324,
,,,,,,,,1,nBack1Cond.xlsx,111,1,-0.2,0.2,space,1,98,,,,,,,,,,,,,0,0,0,0,0,97,97,97,,,,,,,,,,,,,,,,,,,,,,,,,,,,,,,,,,,,,,,,,711.5037716000807,711.5037716000807,711.5037716000807,711.5037716000807,711.5037716000807,711.5037716000807,711.5037716000807,711.5037716000807,711.5037716000807,711.5037716000807,712.485518499976,712.5187772000208,713.4858890001196,space,0.31485279998742044,,,,,,,,,,,,,,,,,,,,,,,,,,,,,001,2022-10-22_15h54.11.592,test9,2022.2.4,59.967893266602324,
,,,,,,,,1,nBack1Cond.xlsx,111,1,-0.2,0.2,space,1,99,,,,,,,,,,,,,0,0,0,0,0,98,98,98,,,,,,,,,,,,,,,,,,,,,,,,,,,,,,,,,,,,,,,,,713.5032665999606,713.5032665999606,713.5032665999606,713.5032665999606,713.5032665999606,713.5032665999606,713.5032665999606,713.5032665999606,713.5032665999606,713.5032665999606,714.4853976999875,714.5184722999111,715.4851307999343,space,0.38436829997226596,,,,,,,,,,,,,,,,,,,,,,,,,,,,,001,2022-10-22_15h54.11.592,test9,2022.2.4,59.967893266602324,
,,,,,,,,1,nBack1Cond.xlsx,111,6,0.2,0,None,1,100,,,,,,,,,,,,,0,0,0,0,0,99,99,99,,,,,,,,,,,,,,,,,,,,,,,,,,,,,,,,,,,,,,,,,715.501850000117,715.501850000117,715.501850000117,715.501850000117,715.501850000117,715.501850000117,715.501850000117,715.501850000117,715.501850000117,715.501850000117,716.4860851000994,716.5027691998985,,None,,,,,,,,,,,,,,,,,,,,,,,,,,,,,,001,2022-10-22_15h54.11.592,test9,2022.2.4,59.967893266602324,
,,,,,,,,1,nBack1Cond.xlsx,111,3,0.2,0.2,None,1,101,,,,,,,,,,,,,0,0,0,0,0,100,100,100,,,,,,,,,,,,,,,,,,,,,,,,,,,,,,,,,,,,,,,,,717.5013486999087,717.5013486999087,717.5013486999087,717.5013486999087,717.5013486999087,717.5013486999087,717.5013486999087,717.5013486999087,717.5013486999087,717.5013486999087,718.4846870000474,718.5013166000135,719.4845610000193,None,,,,,,,,,,,,,,,,,,,,,,,,,,,,,,001,2022-10-22_15h54.11.592,test9,2022.2.4,59.967893266602324,
,,,,,,,,1,nBack1Cond.xlsx,111,1,-0.2,0.2,None,1,102,,,,,,,,,,,,,0,0,0,0,0,101,101,101,,,,,,,,,,,,,,,,,,,,,,,,,,,,,,,,,,,,,,,,,719.5024087000638,719.5024087000638,719.5024087000638,719.5024087000638,719.5024087000638,719.5024087000638,719.5024087000638,719.5024087000638,719.5024087000638,719.5024087000638,720.4843856999651,720.5176816999447,721.4842807999812,None,,,,,,,,,,,,,,,,,,,,,,,,,,,,,,001,2022-10-22_15h54.11.592,test9,2022.2.4,59.967893266602324,
,,,,,,,,1,nBack1Cond.xlsx,111,5,0,0,None,1,103,,,,,,,,,,,,,0,0,0,0,0,102,102,102,,,,,,,,,,,,,,,,,,,,,,,,,,,,,,,,,,,,,,,,,721.5018325001001,721.5018325001001,721.5018325001001,721.5018325001001,721.5018325001001,721.5018325001001,721.5018325001001,721.5018325001001,721.5018325001001,721.5018325001001,722.4842111000326,722.5009006001055,723.4840579999145,None,,,,,,,,,,,,,,,,,,,,,,,,,,,,,,001,2022-10-22_15h54.11.592,test9,2022.2.4,59.967893266602324,
,,,,,,,,1,nBack1Cond.xlsx,111,5,0,0,space,1,104,,,,,,,,,,,,,0,0,0,0,0,103,103,103,,,,,,,,,,,,,,,,,,,,,,,,,,,,,,,,,,,,,,,,,723.5018150000833,723.5018150000833,723.5018150000833,723.5018150000833,723.5018150000833,723.5018150000833,723.5018150000833,723.5018150000833,723.5018150000833,723.5018150000833,724.4842815999873,724.5005224000197,725.4840812000912,space,0.5516620997805148,,,,,,,,,,,,,,,,,,,,,,,,,,,,,001,2022-10-22_15h54.11.592,test9,2022.2.4,59.967893266602324,
,,,,,,,,1,nBack1Cond.xlsx,111,8,0,-0.2,None,1,105,,,,,,,,,,,,,0,0,0,0,0,104,104,104,,,,,,,,,,,,,,,,,,,,,,,,,,,,,,,,,,,,,,,,,725.5005143999588,725.5005143999588,725.5005143999588,725.5005143999588,725.5005143999588,725.5005143999588,725.5005143999588,725.5005143999588,725.5005143999588,725.5005143999588,726.4837160001043,726.5003398999106,727.4836017000489,None,,,,,,,,,,,,,,,,,,,,,,,,,,,,,,001,2022-10-22_15h54.11.592,test9,2022.2.4,59.967893266602324,
,,,,,,,,1,nBack1Cond.xlsx,111,4,-0.2,0,None,1,106,,,,,,,,,,,,,0,0,0,0,0,105,105,105,,,,,,,,,,,,,,,,,,,,,,,,,,,,,,,,,,,,,,,,,727.5002129001077,727.5002129001077,727.5002129001077,727.5002129001077,727.5002129001077,727.5002129001077,727.5002129001077,727.5002129001077,727.5002129001077,727.5002129001077,728.4834952000529,728.5000044999178,729.4834229999688,None,,,,,,,,,,,,,,,,,,,,,,,,,,,,,,001,2022-10-22_15h54.11.592,test9,2022.2.4,59.967893266602324,
,,,,,,,,1,nBack1Cond.xlsx,111,4,-0.2,0,space,1,107,,,,,,,,,,,,,0,0,0,0,0,106,106,106,,,,,,,,,,,,,,,,,,,,,,,,,,,,,,,,,,,,,,,,,729.5000390000641,729.5000390000641,729.5000390000641,729.5000390000641,729.5000390000641,729.5000390000641,729.5000390000641,729.5000390000641,729.5000390000641,729.5000390000641,730.4831831001211,730.4998711999506,731.4831065000035,space,0.6372593999840319,731.5017631000374,731.5017631000374,731.5017631000374,731.5017631000374,731.5017631000374,731.5017631000374,731.5017631000374,731.5017631000374,731.5017631000374,,,,,,,,,,,,,,,,,,,,001,2022-10-22_15h54.11.592,test9,2022.2.4,59.967893266602324,
,,,,,,,,1,nBack1Cond.xlsx,111,2,0,0.2,None,1,108,,,,,,,,,,,,,0,0,0,0,0,107,107,107,,,,,,,,,,,,,,,,,,,,,,,,,,,,,,,,,,,,,,,,,731.5017631000374,731.5017631000374,731.5017631000374,731.5017631000374,731.5017631000374,731.5017631000374,731.5017631000374,731.5017631000374,731.5017631000374,731.5017631000374,732.4828572999686,732.5161854000762,733.4826962999068,None,,,,,,,,,,,,,,,,,,,,,,,,,,,,,,001,2022-10-22_15h54.11.592,test9,2022.2.4,59.967893266602324,
,,,,,,,,1,nBack1Cond.xlsx,111,1,-0.2,0.2,None,1,109,,,,,,,,,,,,,0,0,0,0,0,108,108,108,,,,,,,,,,,,,,,,,,,,,,,,,,,,,,,,,,,,,,,,,733.5179099999368,733.5179099999368,733.5179099999368,733.5179099999368,733.5179099999368,733.5179099999368,733.5179099999368,733.5179099999368,733.5179099999368,733.5179099999368,734.4830473999027,734.5328001000453,735.4825265998952,None,,,,,,,,,,,,,,,,,,,,,,,,,,,,,,001,2022-10-22_15h54.11.592,test9,2022.2.4,59.967893266602324,
,,,,,,,,1,nBack1Cond.xlsx,111,8,0,-0.2,None,1,110,,,,,,,,,,,,,0,0,0,0,0,109,109,109,,,,,,,,,,,,,,,,,,,,,,,,,,,,,,,,,,,,,,,,,735.517292900011,735.517292900011,735.517292900011,735.517292900011,735.517292900011,735.517292900011,735.517292900011,735.517292900011,735.517292900011,735.517292900011,736.4824087000452,736.5323218998965,737.4821460000239,None,,,,,,,,,,,,,,,,,,,,,,,,,,,,,,001,2022-10-22_15h54.11.592,test9,2022.2.4,59.967893266602324,
,,,,,,,,1,nBack1Cond.xlsx,111,3,0.2,0.2,None,1,111,,,,,,,,,,,,,0,0,0,0,0,110,110,110,,,,,,,,,,,,,,,,,,,,,,,,,,,,,,,,,,,,,,,,,737.5153693999164,737.5153693999164,737.5153693999164,737.5153693999164,737.5153693999164,737.5153693999164,737.5153693999164,737.5153693999164,737.5153693999164,737.5153693999164,738.4987375000492,738.5154850999825,739.4986376999877,None,,,,,,,,,,,,,,,,,,,,,,,,,,,,,,001,2022-10-22_15h54.11.592,test9,2022.2.4,59.967893266602324,
,,,,,,,,1,nBack1Cond.xlsx,111,3,0.2,0.2,space,1,112,,,,,,,,,,,,,0,0,0,0,0,111,111,111,,,,,,,,,,,,,,,,,,,,,,,,,,,,,,,,,,,,,,,,,739.5153914999682,739.5153914999682,739.5153914999682,739.5153914999682,739.5153914999682,739.5153914999682,739.5153914999682,739.5153914999682,739.5153914999682,739.5153914999682,740.4990658001043,740.5150578999892,741.4983210999053,space,0.6503258999437094,,,,,,,,,,,,,,,,,,,,,,,,,,,,,001,2022-10-22_15h54.11.592,test9,2022.2.4,59.967893266602324,
,,,,,,,,1,nBack1Cond.xlsx,111,4,-0.2,0,None,1,113,,,,,,,,,,,,,0,0,0,0,0,112,112,112,,,,,,,,,,,,,,,,,,,,,,,,,,,,,,,,,,,,,,,,,741.5178449000232,741.5178449000232,741.5178449000232,741.5178449000232,741.5178449000232,741.5178449000232,741.5178449000232,741.5178449000232,741.5178449000232,741.5178449000232,742.4982827999629,742.53163699992,743.4982143999077,None,,,,,,,,,,,,,,,,,,,,,,,,,,,,,,001,2022-10-22_15h54.11.592,test9,2022.2.4,59.967893266602324,
,,,,,,,,1,nBack1Cond.xlsx,111,6,0.2,0,None,1,114,,,,,,,,,,,,,0,0,0,0,0,113,113,113,,,,,,,,,,,,,,,,,,,,,,,,,,,,,,,,,,,,,,,,,743.5166424999479,743.5166424999479,743.5166424999479,743.5166424999479,743.5166424999479,743.5166424999479,743.5166424999479,743.5166424999479,743.5166424999479,743.5166424999479,744.4980784999207,744.5313707001042,745.49799240008,None,,,,,,,,,,,,,,,,,,,,,,,,,,,,,,001,2022-10-22_15h54.11.592,test9,2022.2.4,59.967893266602324,
,,,,,,,,1,nBack1Cond.xlsx,111,9,0.2,-0.2,None,1,115,,,,,,,,,,,,,0,0,0,0,0,114,114,114,,,,,,,,,,,,,,,,,,,,,,,,,,,,,,,,,,,,,,,,,745.5144859999418,745.5144859999418,745.5144859999418,745.5144859999418,745.5144859999418,745.5144859999418,745.5144859999418,745.5144859999418,745.5144859999418,745.5144859999418,746.4977188000921,746.5144495000131,747.4976470998954,None,,,,,,,,,,,,,,,,,,,,,,,,,,,,,,001,2022-10-22_15h54.11.592,test9,2022.2.4,59.967893266602324,
,,,,,,,,1,nBack1Cond.xlsx,111,9,0.2,-0.2,space,1,116,,,,,,,,,,,,,0,0,0,0,0,115,115,115,,,,,,,,,,,,,,,,,,,,,,,,,,,,,,,,,,,,,,,,,747.5154289000202,747.5154289000202,747.5154289000202,747.5154289000202,747.5154289000202,747.5154289000202,747.5154289000202,747.5154289000202,747.5154289000202,747.5154289000202,748.4977426999249,748.5307950999122,749.4973083999939,space,0.5299302998464555,,,,,,,,,,,,,,,,,,,,,,,,,,,,,001,2022-10-22_15h54.11.592,test9,2022.2.4,59.967893266602324,
,,,,,,,,1,nBack1Cond.xlsx,111,2,0,0.2,None,1,117,,,,,,,,,,,,,0,0,0,0,0,116,116,116,,,,,,,,,,,,,,,,,,,,,,,,,,,,,,,,,,,,,,,,,749.5156062000897,749.5156062000897,749.5156062000897,749.5156062000897,749.5156062000897,749.5156062000897,749.5156062000897,749.5156062000897,749.5156062000897,749.5156062000897,750.4972494998947,750.5305270000827,751.4971217000857,None,,,,,,,,,,,,,,,,,,,,,,,,,,,,,,001,2022-10-22_15h54.11.592,test9,2022.2.4,59.967893266602324,
,,,,,,,,1,nBack1Cond.xlsx,111,6,0.2,0,None,1,118,,,,,,,,,,,,,0,0,0,0,0,117,117,117,,,,,,,,,,,,,,,,,,,,,,,,,,,,,,,,,,,,,,,,,751.5141809999477,751.5141809999477,751.5141809999477,751.5141809999477,751.5141809999477,751.5141809999477,751.5141809999477,751.5141809999477,751.5141809999477,751.5141809999477,752.4976031999104,752.5135365999304,753.4968767000828,None,,,,,,,,,,,,,,,,,,,,,,,,,,,,,,001,2022-10-22_15h54.11.592,test9,2022.2.4,59.967893266602324,
,,,,,,,,1,nBack1Cond.xlsx,111,6,0.2,0,space,1,119,,,,,,,,,,,,,0,0,0,0,0,118,118,118,,,,,,,,,,,,,,,,,,,,,,,,,,,,,,,,,,,,,,,,,753.5147480000742,753.5147480000742,753.5147480000742,753.5147480000742,753.5147480000742,753.5147480000742,753.5147480000742,753.5147480000742,753.5147480000742,753.5147480000742,754.4966363001149,754.5298760998994,755.4965468998998,space,0.3949422996956855,,,,,,,,,,,,,,,,,,,,,,,,,,,,,001,2022-10-22_15h54.11.592,test9,2022.2.4,59.967893266602324,
,,,,,,,,1,nBack1Cond.xlsx,111,,,,,,,,,,,,,,,,,,,0,0,0,0,,,,,,,,,,,,,,,,,,,,,,,,,,,,,,,,,,,,,,,,,,,,,,,,,,,,,,,,,,,,,,,,,,,,,,,,,,,,,,,,,,,,,,,,001,2022-10-22_15h54.11.592,test9,2022.2.4,59.967893266602324,
,,,,,,,,2,nBack2Cond.xlsx,121,5,0,0,None,2,120,,,,,,,,,,,,,0,1,1,1,0,0,0,0,,,,,,,,,,,,,,,,,,,,,,,,,,,,,,,,,,,,,755.5648320999462,755.5648320999462,755.5648320999462,755.5648320999462,759.3462732001208,759.3462732001208,759.3462732001208,759.3462732001208,759.3462732001208,759.3462732001208,759.3462732001208,759.3462732001208,759.3462732001208,759.3462732001208,760.2791528000962,760.3498955001123,761.279185499996,None,,,,,,,,,,,,,,,,,,,,,,,,,,,,,,001,2022-10-22_15h54.11.592,test9,2022.2.4,59.967893266602324,
,,,,,,,,2,nBack2Cond.xlsx,121,2,0,0.2,None,2,121,,,,,,,,,,,,,0,1,1,1,0,1,1,1,,,,,,,,,,,,,,,,,,,,,,,,,,,,,,,,,,,,,,,,,761.2958430000581,761.2958430000581,761.2958430000581,761.2958430000581,761.2958430000581,761.2958430000581,761.2958430000581,761.2958430000581,761.2958430000581,761.2958430000581,762.2789773999248,762.2956503001042,763.2789294999093,None,,,,,,,,,,,,,,,,,,,,,,,,,,,,,,001,2022-10-22_15h54.11.592,test9,2022.2.4,59.967893266602324,
,,,,,,,,2,nBack2Cond.xlsx,121,6,0.2,0,None,2,122,,,,,,,,,,,,,0,1,1,1,0,2,2,2,,,,,,,,,,,,,,,,,,,,,,,,,,,,,,,,,,,,,,,,,763.2971049000043,763.2971049000043,763.2971049000043,763.2971049000043,763.2971049000043,763.2971049000043,763.2971049000043,763.2971049000043,763.2971049000043,763.2971049000043,764.2785966999363,764.3119057998993,765.2786516998895,None,,,,,,,,,,,,,,,,,,,,,,,,,,,,,,001,2022-10-22_15h54.11.592,test9,2022.2.4,59.967893266602324,
,,,,,,,,2,nBack2Cond.xlsx,121,9,0.2,-0.2,None,2,123,,,,,,,,,,,,,0,1,1,1,0,3,3,3,,,,,,,,,,,,,,,,,,,,,,,,,,,,,,,,,,,,,,,,,765.2970728999935,765.2970728999935,765.2970728999935,765.2970728999935,765.2970728999935,765.2970728999935,765.2970728999935,765.2970728999935,765.2970728999935,765.2970728999935,766.2783955999184,766.3118112999946,767.2783912001178,None,,,,,,,,,,,,,,,,,,,,,,,,,,,,,,001,2022-10-22_15h54.11.592,test9,2022.2.4,59.967893266602324,
,,,,,,,,2,nBack2Cond.xlsx,121,3,0.2,0.2,None,2,124,,,,,,,,,,,,,0,1,1,1,0,4,4,4,,,,,,,,,,,,,,,,,,,,,,,,,,,,,,,,,,,,,,,,,767.2959370999597,767.2959370999597,767.2959370999597,767.2959370999597,767.2959370999597,767.2959370999597,767.2959370999597,767.2959370999597,767.2959370999597,767.2959370999597,768.2781462999992,768.3117740000598,769.2780776000582,None,,,,,,,,,,,,,,,,,,,,,,,,,,,,,,001,2022-10-22_15h54.11.592,test9,2022.2.4,59.967893266602324,
,,,,,,,,2,nBack2Cond.xlsx,121,9,0.2,-0.2,space,2,125,,,,,,,,,,,,,0,1,1,1,0,5,5,5,,,,,,,,,,,,,,,,,,,,,,,,,,,,,,,,,,,,,,,,,769.2948185999412,769.2948185999412,769.2948185999412,769.2948185999412,769.2948185999412,769.2948185999412,769.2948185999412,769.2948185999412,769.2948185999412,769.2948185999412,770.2779463001061,770.2944626000244,771.2777710000519,space,0.4384133997373283,,,,,,,,,,,,,,,,,,,,,,,,,,,,,001,2022-10-22_15h54.11.592,test9,2022.2.4,59.967893266602324,
,,,,,,,,2,nBack2Cond.xlsx,121,7,-0.2,-0.2,None,2,126,,,,,,,,,,,,,0,1,1,1,0,6,6,6,,,,,,,,,,,,,,,,,,,,,,,,,,,,,,,,,,,,,,,,,771.294780000113,771.294780000113,771.294780000113,771.294780000113,771.294780000113,771.294780000113,771.294780000113,771.294780000113,771.294780000113,771.294780000113,772.2775715999305,772.2942007998936,773.2775264999364,None,,,,,,,,,,,,,,,,,,,,,,,,,,,,,,001,2022-10-22_15h54.11.592,test9,2022.2.4,59.967893266602324,
,,,,,,,,2,nBack2Cond.xlsx,121,1,-0.2,0.2,None,2,127,,,,,,,,,,,,,0,1,1,1,0,7,7,7,,,,,,,,,,,,,,,,,,,,,,,,,,,,,,,,,,,,,,,,,773.294182700105,773.294182700105,773.294182700105,773.294182700105,773.294182700105,773.294182700105,773.294182700105,773.294182700105,773.294182700105,773.294182700105,774.2771972001065,774.2939309000503,775.2774364000652,None,,,,,,,,,,,,,,,,,,,,,,,,,,,,,,001,2022-10-22_15h54.11.592,test9,2022.2.4,59.967893266602324,
,,,,,,,,2,nBack2Cond.xlsx,121,5,0,0,None,2,128,,,,,,,,,,,,,0,1,1,1,0,8,8,8,,,,,,,,,,,,,,,,,,,,,,,,,,,,,,,,,,,,,,,,,775.2955032000318,775.2955032000318,775.2955032000318,775.2955032000318,775.2955032000318,775.2955032000318,775.2955032000318,775.2955032000318,775.2955032000318,775.2955032000318,776.277146999957,776.3103219999466,777.2771421000361,None,,,,,,,,,,,,,,,,,,,,,,,,,,,,,,001,2022-10-22_15h54.11.592,test9,2022.2.4,59.967893266602324,
,,,,,,,,2,nBack2Cond.xlsx,121,7,-0.2,-0.2,None,2,129,,,,,,,,,,,,,0,1,1,1,0,9,9,9,,,,,,,,,,,,,,,,,,,,,,,,,,,,,,,,,,,,,,,,,777.2948938999325,777.2948938999325,777.2948938999325,777.2948938999325,777.2948938999325,777.2948938999325,777.2948938999325,777.2948938999325,777.2948938999325,777.2948938999325,778.2768399000634,778.31014470011,779.2767733999062,None,,,,,,,,,,,,,,,,,,,,,,,,,,,,,,001,2022-10-22_15h54.11.592,test9,2022.2.4,59.967893266602324,
,,,,,,,,2,nBack2Cond.xlsx,121,5,0,0,space,2,130,,,,,,,,,,,,,0,1,1,1,0,10,10,10,,,,,,,,,,,,,,,,,,,,,,,,,,,,,,,,,,,,,,,,,779.2936333999969,779.2936333999969,779.2936333999969,779.2936333999969,779.2936333999969,779.2936333999969,779.2936333999969,779.2936333999969,779.2936333999969,779.2936333999969,780.2766086999327,780.2932883000467,781.2764655000065,space,0.5287152999080718,,,,,,,,,,,,,,,,,,,,,,,,,,,,,001,2022-10-22_15h54.11.592,test9,2022.2.4,59.967893266602324,
,,,,,,,,2,nBack2Cond.xlsx,121,6,0.2,0,None,2,131,,,,,,,,,,,,,0,1,1,1,0,11,11,11,,,,,,,,,,,,,,,,,,,,,,,,,,,,,,,,,,,,,,,,,781.2935130000114,781.2935130000114,781.2935130000114,781.2935130000114,781.2935130000114,781.2935130000114,781.2935130000114,781.2935130000114,781.2935130000114,781.2935130000114,782.2762337001041,782.2929088999517,783.2765899999067,None,,,,,,,,,,,,,,,,,,,,,,,,,,,,,,001,2022-10-22_15h54.11.592,test9,2022.2.4,59.967893266602324,
,,,,,,,,2,nBack2Cond.xlsx,121,3,0.2,0.2,None,2,132,,,,,,,,,,,,,0,1,1,1,0,12,12,12,,,,,,,,,,,,,,,,,,,,,,,,,,,,,,,,,,,,,,,,,783.2940537999384,783.2940537999384,783.2940537999384,783.2940537999384,783.2940537999384,783.2940537999384,783.2940537999384,783.2940537999384,783.2940537999384,783.2940537999384,784.2760286000557,784.3094637000468,785.2760056001134,None,,,,,,,,,,,,,,,,,,,,,,,,,,,,,,001,2022-10-22_15h54.11.592,test9,2022.2.4,59.967893266602324,
,,,,,,,,2,nBack2Cond.xlsx,121,6,0.2,0,space,2,133,,,,,,,,,,,,,0,1,1,1,0,13,13,13,,,,,,,,,,,,,,,,,,,,,,,,,,,,,,,,,,,,,,,,,785.2936720999423,785.2936720999423,785.2936720999423,785.2936720999423,785.2936720999423,785.2936720999423,785.2936720999423,785.2936720999423,785.2936720999423,785.2936720999423,786.2757759001106,786.3090832999442,787.275809600018,space,0.32297430001199245,,,,,,,,,,,,,,,,,,,,,,,,,,,,,001,2022-10-22_15h54.11.592,test9,2022.2.4,59.967893266602324,
,,,,,,,,2,nBack2Cond.xlsx,121,8,0,-0.2,None,2,134,,,,,,,,,,,,,0,1,1,1,0,14,14,14,,,,,,,,,,,,,,,,,,,,,,,,,,,,,,,,,,,,,,,,,787.2939987999853,787.2939987999853,787.2939987999853,787.2939987999853,787.2939987999853,787.2939987999853,787.2939987999853,787.2939987999853,787.2939987999853,787.2939987999853,788.2754709001165,788.3088587000966,789.2755428000819,None,,,,,,,,,,,,,,,,,,,,,,,,,,,,,,001,2022-10-22_15h54.11.592,test9,2022.2.4,59.967893266602324,
,,,,,,,,2,nBack2Cond.xlsx,121,9,0.2,-0.2,None,2,135,,,,,,,,,,,,,0,1,1,1,0,15,15,15,,,,,,,,,,,,,,,,,,,,,,,,,,,,,,,,,,,,,,,,,789.292303299997,789.292303299997,789.292303299997,789.292303299997,789.292303299997,789.292303299997,789.292303299997,789.292303299997,789.292303299997,789.292303299997,790.2753024999984,790.2918533999473,791.2752334000543,None,,,,,,,,,,,,,,,,,,,,,,,,,,,,,,001,2022-10-22_15h54.11.592,test9,2022.2.4,59.967893266602324,
,,,,,,,,2,nBack2Cond.xlsx,121,9,0.2,-0.2,None,2,136,,,,,,,,,,,,,0,1,1,1,0,16,16,16,,,,,,,,,,,,,,,,,,,,,,,,,,,,,,,,,,,,,,,,,791.291961699957,791.291961699957,791.291961699957,791.291961699957,791.291961699957,791.291961699957,791.291961699957,791.291961699957,791.291961699957,791.291961699957,792.2751058998983,792.291656000074,793.2750053000636,None,,,,,,,,,,,,,,,,,,,,,,,,,,,,,,001,2022-10-22_15h54.11.592,test9,2022.2.4,59.967893266602324,
,,,,,,,,2,nBack2Cond.xlsx,121,1,-0.2,0.2,None,2,137,,,,,,,,,,,,,0,1,1,1,0,17,17,17,,,,,,,,,,,,,,,,,,,,,,,,,,,,,,,,,,,,,,,,,793.2917963999789,793.2917963999789,793.2917963999789,793.2917963999789,793.2917963999789,793.2917963999789,793.2917963999789,793.2917963999789,793.2917963999789,793.2917963999789,794.2747369001154,794.2913548001088,795.2747537000105,None,,,,,,,,,,,,,,,,,,,,,,,,,,,,,,001,2022-10-22_15h54.11.592,test9,2022.2.4,59.967893266602324,
,,,,,,,,2,nBack2Cond.xlsx,121,3,0.2,0.2,None,2,138,,,,,,,,,,,,,0,1,1,1,0,18,18,18,,,,,,,,,,,,,,,,,,,,,,,,,,,,,,,,,,,,,,,,,795.2925372000318,795.2925372000318,795.2925372000318,795.2925372000318,795.2925372000318,795.2925372000318,795.2925372000318,795.2925372000318,795.2925372000318,795.2925372000318,796.274521100102,796.307736699935,797.274531800067,None,,,,,,,,,,,,,,,,,,,,,,,,,,,,,,001,2022-10-22_15h54.11.592,test9,2022.2.4,59.967893266602324,
,,,,,,,,2,nBack2Cond.xlsx,121,5,0,0,None,2,139,,,,,,,,,,,,,0,1,1,1,0,19,19,19,,,,,,,,,,,,,,,,,,,,,,,,,,,,,,,,,,,,,,,,,797.2918527999427,797.2918527999427,797.2918527999427,797.2918527999427,797.2918527999427,797.2918527999427,797.2918527999427,797.2918527999427,797.2918527999427,797.2918527999427,798.264596800087,798.2867052000947,799.2743883999065,None,,,,,,,,,,,,,,,,,,,,,,,,,,,,,,001,2022-10-22_15h54.11.592,test9,2022.2.4,59.967893266602324,
,,,,,,,,2,nBack2Cond.xlsx,121,3,0.2,0.2,space,2,140,,,,,,,,,,,,,0,1,1,1,0,20,20,20,,,,,,,,,,,,,,,,,,,,,,,,,,,,,,,,,,,,,,,,,799.291865899926,799.291865899926,799.291865899926,799.291865899926,799.291865899926,799.291865899926,799.291865899926,799.291865899926,799.291865899926,799.291865899926,800.2752918000333,800.2906015000772,801.2738648999948,space,0.47336559975519776,,,,,,,,,,,,,,,,,,,,,,,,,,,,,001,2022-10-22_15h54.11.592,test9,2022.2.4,59.967893266602324,
,,,,,,,,2,nBack2Cond.xlsx,121,4,-0.2,0,None,2,141,,,,,,,,,,,,,0,1,1,1,0,21,21,21,,,,,,,,,,,,,,,,,,,,,,,,,,,,,,,,,,,,,,,,,801.2920379000716,801.2920379000716,801.2920379000716,801.2920379000716,801.2920379000716,801.2920379000716,801.2920379000716,801.2920379000716,801.2920379000716,801.2920379000716,802.2736949999817,802.306988999946,803.2737135000061,None,,,,,,,,,,,,,,,,,,,,,,,,,,,,,,001,2022-10-22_15h54.11.592,test9,2022.2.4,59.967893266602324,
,,,,,,,,2,nBack2Cond.xlsx,121,7,-0.2,-0.2,None,2,142,,,,,,,,,,,,,0,1,1,1,0,22,22,22,,,,,,,,,,,,,,,,,,,,,,,,,,,,,,,,,,,,,,,,,803.2917466000654,803.2917466000654,803.2917466000654,803.2917466000654,803.2917466000654,803.2917466000654,803.2917466000654,803.2917466000654,803.2917466000654,803.2917466000654,804.2764550000429,804.2945779000875,,None,,,,,,,,,,,,,,,,,,,,,,,,,,,,,,001,2022-10-22_15h54.11.592,test9,2022.2.4,59.967893266602324,
,,,,,,,,2,nBack2Cond.xlsx,121,4,-0.2,0,space,2,143,,,,,,,,,,,,,0,1,1,1,0,23,23,23,,,,,,,,,,,,,,,,,,,,,,,,,,,,,,,,,,,,,,,,,805.2901880000718,805.2901880000718,805.2901880000718,805.2901880000718,805.2901880000718,805.2901880000718,805.2901880000718,805.2901880000718,805.2901880000718,805.2901880000718,806.2731065000407,806.2898077999707,807.2732037999667,space,0.5275803999975324,,,,,,,,,,,,,,,,,,,,,,,,,,,,,001,2022-10-22_15h54.11.592,test9,2022.2.4,59.967893266602324,
,,,,,,,,2,nBack2Cond.xlsx,121,4,-0.2,0,None,2,144,,,,,,,,,,,,,0,1,1,1,0,24,24,24,,,,,,,,,,,,,,,,,,,,,,,,,,,,,,,,,,,,,,,,,807.2929150999989,807.2929150999989,807.2929150999989,807.2929150999989,807.2929150999989,807.2929150999989,807.2929150999989,807.2929150999989,807.2929150999989,807.2929150999989,808.2728778000455,808.3063632000703,809.272965000011,None,,,,,,,,,,,,,,,,,,,,,,,,,,,,,,001,2022-10-22_15h54.11.592,test9,2022.2.4,59.967893266602324,
,,,,,,,,2,nBack2Cond.xlsx,121,5,0,0,None,2,145,,,,,,,,,,,,,0,1,1,1,0,25,25,25,,,,,,,,,,,,,,,,,,,,,,,,,,,,,,,,,,,,,,,,,809.2926890000235,809.2926890000235,809.2926890000235,809.2926890000235,809.2926890000235,809.2926890000235,809.2926890000235,809.2926890000235,809.2926890000235,809.2926890000235,810.2726761999074,810.3060373000335,811.2727636999916,None,,,,,,,,,,,,,,,,,,,,,,,,,,,,,,001,2022-10-22_15h54.11.592,test9,2022.2.4,59.967893266602324,
,,,,,,,,2,nBack2Cond.xlsx,121,2,0,0.2,None,2,146,,,,,,,,,,,,,0,1,1,1,0,26,26,26,,,,,,,,,,,,,,,,,,,,,,,,,,,,,,,,,,,,,,,,,811.2893687000033,811.2893687000033,811.2893687000033,811.2893687000033,811.2893687000033,811.2893687000033,811.2893687000033,811.2893687000033,811.2893687000033,811.2893687000033,812.2724458000157,812.2891228001099,813.2722942999098,None,,,,,,,,,,,,,,,,,,,,,,,,,,,,,,001,2022-10-22_15h54.11.592,test9,2022.2.4,59.967893266602324,
,,,,,,,,2,nBack2Cond.xlsx,121,6,0.2,0,None,2,147,,,,,,,,,,,,,0,1,1,1,0,27,27,27,,,,,,,,,,,,,,,,,,,,,,,,,,,,,,,,,,,,,,,,,813.2900006999262,813.2900006999262,813.2900006999262,813.2900006999262,813.2900006999262,813.2900006999262,813.2900006999262,813.2900006999262,813.2900006999262,813.2900006999262,814.2721997001208,814.3054742000531,815.2722338999156,None,,,,,,,,,,,,,,,,,,,,,,,,,,,,,,001,2022-10-22_15h54.11.592,test9,2022.2.4,59.967893266602324,
,,,,,,,,2,nBack2Cond.xlsx,121,7,-0.2,-0.2,None,2,148,,,,,,,,,,,,,0,1,1,1,0,28,28,28,,,,,,,,,,,,,,,,,,,,,,,,,,,,,,,,,,,,,,,,,815.2889151000418,815.2889151000418,815.2889151000418,815.2889151000418,815.2889151000418,815.2889151000418,815.2889151000418,815.2889151000418,815.2889151000418,815.2889151000418,816.2719827999827,816.2884492999874,817.2718708000612,None,,,,,,,,,,,,,,,,,,,,,,,,,,,,,,001,2022-10-22_15h54.11.592,test9,2022.2.4,59.967893266602324,
,,,,,,,,2,nBack2Cond.xlsx,121,6,0.2,0,space,2,149,,,,,,,,,,,,,0,1,1,1,0,29,29,29,,,,,,,,,,,,,,,,,,,,,,,,,,,,,,,,,,,,,,,,,817.289780799998,817.289780799998,817.289780799998,817.289780799998,817.289780799998,817.289780799998,817.289780799998,817.289780799998,817.289780799998,817.289780799998,818.2715459999163,818.3049830999225,819.2724059000611,space,0.5590160998981446,,,,,,,,,,,,,,,,,,,,,,,,,,,,,001,2022-10-22_15h54.11.592,test9,2022.2.4,59.967893266602324,
,,,,,,,,2,nBack2Cond.xlsx,121,8,0,-0.2,None,2,150,,,,,,,,,,,,,0,1,1,1,0,30,30,30,,,,,,,,,,,,,,,,,,,,,,,,,,,,,,,,,,,,,,,,,819.2900892999023,819.2900892999023,819.2900892999023,819.2900892999023,819.2900892999023,819.2900892999023,819.2900892999023,819.2900892999023,819.2900892999023,819.2900892999023,820.2713393999729,820.3063155000564,821.2715110001154,None,,,,,,,,,,,,,,,,,,,,,,,,,,,,,,001,2022-10-22_15h54.11.592,test9,2022.2.4,59.967893266602324,
,,,,,,,,2,nBack2Cond.xlsx,121,2,0,0.2,None,2,151,,,,,,,,,,,,,0,1,1,1,0,31,31,31,,,,,,,,,,,,,,,,,,,,,,,,,,,,,,,,,,,,,,,,,821.2901638001204,821.2901638001204,821.2901638001204,821.2901638001204,821.2901638001204,821.2901638001204,821.2901638001204,821.2901638001204,821.2901638001204,821.2901638001204,822.2712552000303,822.3044263999909,823.2711875000969,None,,,,,,,,,,,,,,,,,,,,,,,,,,,,,,001,2022-10-22_15h54.11.592,test9,2022.2.4,59.967893266602324,
,,,,,,,,2,nBack2Cond.xlsx,121,8,0,-0.2,space,2,152,,,,,,,,,,,,,0,1,1,1,0,32,32,32,,,,,,,,,,,,,,,,,,,,,,,,,,,,,,,,,,,,,,,,,823.2897020999808,823.2897020999808,823.2897020999808,823.2897020999808,823.2897020999808,823.2897020999808,823.2897020999808,823.2897020999808,823.2897020999808,823.2897020999808,824.2708809000906,824.3041260000318,825.2712723999284,space,0.6163825998082757,,,,,,,,,,,,,,,,,,,,,,,,,,,,,001,2022-10-22_15h54.11.592,test9,2022.2.4,59.967893266602324,
,,,,,,,,2,nBack2Cond.xlsx,121,9,0.2,-0.2,None,2,153,,,,,,,,,,,,,0,1,1,1,0,33,33,33,,,,,,,,,,,,,,,,,,,,,,,,,,,,,,,,,,,,,,,,,825.2876566001214,825.2876566001214,825.2876566001214,825.2876566001214,825.2876566001214,825.2876566001214,825.2876566001214,825.2876566001214,825.2876566001214,825.2876566001214,826.2705995999277,826.2872804999352,827.2712453000713,None,,,,,,,,,,,,,,,,,,,,,,,,,,,,,,001,2022-10-22_15h54.11.592,test9,2022.2.4,59.967893266602324,
,,,,,,,,2,nBack2Cond.xlsx,121,6,0.2,0,None,2,154,,,,,,,,,,,,,0,1,1,1,0,34,34,34,,,,,,,,,,,,,,,,,,,,,,,,,,,,,,,,,,,,,,,,,827.2891718000174,827.2891718000174,827.2891718000174,827.2891718000174,827.2891718000174,827.2891718000174,827.2891718000174,827.2891718000174,827.2891718000174,827.2891718000174,828.270278400043,828.3038973000366,829.2703174999915,None,,,,,,,,,,,,,,,,,,,,,,,,,,,,,,001,2022-10-22_15h54.11.592,test9,2022.2.4,59.967893266602324,
,,,,,,,,2,nBack2Cond.xlsx,121,9,0.2,-0.2,space,2,155,,,,,,,,,,,,,0,1,1,1,0,35,35,35,,,,,,,,,,,,,,,,,,,,,,,,,,,,,,,,,,,,,,,,,829.2870159999002,829.2870159999002,829.2870159999002,829.2870159999002,829.2870159999002,829.2870159999002,829.2870159999002,829.2870159999002,829.2870159999002,829.2870159999002,830.2700386999641,830.2867294000462,831.2701328000985,space,0.35756979999132454,,,,,,,,,,,,,,,,,,,,,,,,,,,,,001,2022-10-22_15h54.11.592,test9,2022.2.4,59.967893266602324,
,,,,,,,,2,nBack2Cond.xlsx,121,4,-0.2,0,None,2,156,,,,,,,,,,,,,0,1,1,1,0,36,36,36,,,,,,,,,,,,,,,,,,,,,,,,,,,,,,,,,,,,,,,,,831.2898353999481,831.2898353999481,831.2898353999481,831.2898353999481,831.2898353999481,831.2898353999481,831.2898353999481,831.2898353999481,831.2898353999481,831.2898353999481,832.2698590001091,832.3030588000547,833.2697441999335,None,,,,,,,,,,,,,,,,,,,,,,,,,,,,,,001,2022-10-22_15h54.11.592,test9,2022.2.4,59.967893266602324,
,,,,,,,,2,nBack2Cond.xlsx,121,3,0.2,0.2,None,2,157,,,,,,,,,,,,,0,1,1,1,0,37,37,37,,,,,,,,,,,,,,,,,,,,,,,,,,,,,,,,,,,,,,,,,833.2888925999869,833.2888925999869,833.2888925999869,833.2888925999869,833.2888925999869,833.2888925999869,833.2888925999869,833.2888925999869,833.2888925999869,833.2888925999869,834.2696231999435,834.3027588000987,835.2696050000377,None,,,,,,,,,,,,,,,,,,,,,,,,,,,,,,001,2022-10-22_15h54.11.592,test9,2022.2.4,59.967893266602324,
,,,,,,,,2,nBack2Cond.xlsx,121,8,0,-0.2,None,2,158,,,,,,,,,,,,,0,1,1,1,0,38,38,38,,,,,,,,,,,,,,,,,,,,,,,,,,,,,,,,,,,,,,,,,835.2873603999615,835.2873603999615,835.2873603999615,835.2873603999615,835.2873603999615,835.2873603999615,835.2873603999615,835.2873603999615,835.2873603999615,835.2873603999615,836.2693062000908,836.3026139999274,837.2691697999835,None,,,,,,,,,,,,,,,,,,,,,,,,,,,,,,001,2022-10-22_15h54.11.592,test9,2022.2.4,59.967893266602324,
,,,,,,,,2,nBack2Cond.xlsx,121,3,0.2,0.2,space,2,159,,,,,,,,,,,,,0,1,1,1,0,39,39,39,,,,,,,,,,,,,,,,,,,,,,,,,,,,,,,,,,,,,,,,,837.2872921999078,837.2872921999078,837.2872921999078,837.2872921999078,837.2872921999078,837.2872921999078,837.2872921999078,837.2872921999078,837.2872921999078,837.2872921999078,838.269505900098,838.3022765000351,839.2689143000171,space,0.48954640002921224,,,,,,,,,,,,,,,,,,,,,,,,,,,,,001,2022-10-22_15h54.11.592,test9,2022.2.4,59.967893266602324,
,,,,,,,,2,nBack2Cond.xlsx,121,1,-0.2,0.2,None,2,160,,,,,,,,,,,,,0,1,1,1,0,40,40,40,,,,,,,,,,,,,,,,,,,,,,,,,,,,,,,,,,,,,,,,,839.2861226999667,839.2861226999667,839.2861226999667,839.2861226999667,839.2861226999667,839.2861226999667,839.2861226999667,839.2861226999667,839.2861226999667,839.2861226999667,840.2688263999298,840.2853387999348,841.2687456000131,None,,,,,,,,,,,,,,,,,,,,,,,,,,,,,,001,2022-10-22_15h54.11.592,test9,2022.2.4,59.967893266602324,
,,,,,,,,2,nBack2Cond.xlsx,121,4,-0.2,0,None,2,161,,,,,,,,,,,,,0,1,1,1,0,41,41,41,,,,,,,,,,,,,,,,,,,,,,,,,,,,,,,,,,,,,,,,,841.2870451998897,841.2870451998897,841.2870451998897,841.2870451998897,841.2870451998897,841.2870451998897,841.2870451998897,841.2870451998897,841.2870451998897,841.2870451998897,842.2684522001073,842.3018489000387,843.2686056999955,None,,,,,,,,,,,,,,,,,,,,,,,,,,,,,,001,2022-10-22_15h54.11.592,test9,2022.2.4,59.967893266602324,
,,,,,,,,2,nBack2Cond.xlsx,121,2,0,0.2,None,2,162,,,,,,,,,,,,,0,1,1,1,0,42,42,42,,,,,,,,,,,,,,,,,,,,,,,,,,,,,,,,,,,,,,,,,843.2875419000629,843.2875419000629,843.2875419000629,843.2875419000629,843.2875419000629,843.2875419000629,843.2875419000629,843.2875419000629,843.2875419000629,843.2875419000629,844.2682423999067,844.3015296999365,845.2682459000498,None,,,,,,,,,,,,,,,,,,,,,,,,,,,,,,001,2022-10-22_15h54.11.592,test9,2022.2.4,59.967893266602324,
,,,,,,,,2,nBack2Cond.xlsx,121,4,-0.2,0,space,2,163,,,,,,,,,,,,,0,1,1,1,0,43,43,43,,,,,,,,,,,,,,,,,,,,,,,,,,,,,,,,,,,,,,,,,845.2865975999739,845.2865975999739,845.2865975999739,845.2865975999739,845.2865975999739,845.2865975999739,845.2865975999739,845.2865975999739,845.2865975999739,845.2865975999739,846.2683166998904,846.3013138000388,847.2678743000142,space,0.4519988000392914,,,,,,,,,,,,,,,,,,,,,,,,,,,,,001,2022-10-22_15h54.11.592,test9,2022.2.4,59.967893266602324,
,,,,,,,,2,nBack2Cond.xlsx,121,8,0,-0.2,None,2,164,,,,,,,,,,,,,0,1,1,1,0,44,44,44,,,,,,,,,,,,,,,,,,,,,,,,,,,,,,,,,,,,,,,,,847.3029022999108,847.3029022999108,847.3029022999108,847.3029022999108,847.3029022999108,847.3029022999108,847.3029022999108,847.3029022999108,847.3029022999108,847.3029022999108,848.2691945000552,848.3010416000616,849.2843237000052,None,,,,,,,,,,,,,,,,,,,,,,,,,,,,,,001,2022-10-22_15h54.11.592,test9,2022.2.4,59.967893266602324,
,,,,,,,,2,nBack2Cond.xlsx,121,5,0,0,None,2,165,,,,,,,,,,,,,0,1,1,1,0,45,45,45,,,,,,,,,,,,,,,,,,,,,,,,,,,,,,,,,,,,,,,,,849.3018159999046,849.3018159999046,849.3018159999046,849.3018159999046,849.3018159999046,849.3018159999046,849.3018159999046,849.3018159999046,849.3018159999046,849.3018159999046,850.2674261999782,850.3174173000734,851.2674076000694,None,,,,,,,,,,,,,,,,,,,,,,,,,,,,,,001,2022-10-22_15h54.11.592,test9,2022.2.4,59.967893266602324,
,,,,,,,,2,nBack2Cond.xlsx,121,1,-0.2,0.2,None,2,166,,,,,,,,,,,,,0,1,1,1,0,46,46,46,,,,,,,,,,,,,,,,,,,,,,,,,,,,,,,,,,,,,,,,,851.3022797999438,851.3022797999438,851.3022797999438,851.3022797999438,851.3022797999438,851.3022797999438,851.3022797999438,851.3022797999438,851.3022797999438,851.3022797999438,852.2837658000644,852.317197999917,853.2839532000944,None,,,,,,,,,,,,,,,,,,,,,,,,,,,,,,001,2022-10-22_15h54.11.592,test9,2022.2.4,59.967893266602324,
,,,,,,,,2,nBack2Cond.xlsx,121,5,0,0,space,2,167,,,,,,,,,,,,,0,1,1,1,0,47,47,47,,,,,,,,,,,,,,,,,,,,,,,,,,,,,,,,,,,,,,,,,853.3006386000197,853.3006386000197,853.3006386000197,853.3006386000197,853.3006386000197,853.3006386000197,853.3006386000197,853.3006386000197,853.3006386000197,853.3006386000197,854.2836265000515,854.3002508000936,855.2836551000364,space,0.42088359990157187,,,,,,,,,,,,,,,,,,,,,,,,,,,,,001,2022-10-22_15h54.11.592,test9,2022.2.4,59.967893266602324,
,,,,,,,,2,nBack2Cond.xlsx,121,3,0.2,0.2,None,2,168,,,,,,,,,,,,,0,1,1,1,0,48,48,48,,,,,,,,,,,,,,,,,,,,,,,,,,,,,,,,,,,,,,,,,855.3018589001149,855.3018589001149,855.3018589001149,855.3018589001149,855.3018589001149,855.3018589001149,855.3018589001149,855.3018589001149,855.3018589001149,855.3018589001149,856.283264100086,856.3167006000876,857.2834069000091,space,1.0213694998528808,,,,,,,,,,,,,,,,,,,,,,,,,,,,,001,2022-10-22_15h54.11.592,test9,2022.2.4,59.967893266602324,
,,,,,,,,2,nBack2Cond.xlsx,121,6,0.2,0,None,2,169,,,,,,,,,,,,,0,1,1,1,0,49,49,49,,,,,,,,,,,,,,,,,,,,,,,,,,,,,,,,,,,,,,,,,857.3011962000746,857.3011962000746,857.3011962000746,857.3011962000746,857.3011962000746,857.3011962000746,857.3011962000746,857.3011962000746,857.3011962000746,857.3011962000746,858.2830107999034,858.3163525999989,859.283048100071,None,,,,,,,,,,,,,,,,,,,,,,,,,,,,,,001,2022-10-22_15h54.11.592,test9,2022.2.4,59.967893266602324,
,,,,,,,,2,nBack2Cond.xlsx,121,1,-0.2,0.2,None,2,170,,,,,,,,,,,,,0,1,1,1,0,50,50,50,,,,,,,,,,,,,,,,,,,,,,,,,,,,,,,,,,,,,,,,,859.3011231001001,859.3011231001001,859.3011231001001,859.3011231001001,859.3011231001001,859.3011231001001,859.3011231001001,859.3011231001001,859.3011231001001,859.3011231001001,860.2828703999985,860.3161071001086,861.2828951999545,None,,,,,,,,,,,,,,,,,,,,,,,,,,,,,,001,2022-10-22_15h54.11.592,test9,2022.2.4,59.967893266602324,
,,,,,,,,2,nBack2Cond.xlsx,121,3,0.2,0.2,None,2,171,,,,,,,,,,,,,0,1,1,1,0,51,51,51,,,,,,,,,,,,,,,,,,,,,,,,,,,,,,,,,,,,,,,,,861.3004228998907,861.3004228998907,861.3004228998907,861.3004228998907,861.3004228998907,861.3004228998907,861.3004228998907,861.3004228998907,861.3004228998907,861.3004228998907,862.2825786999892,862.3159032999538,863.2826821999624,space,0.5580191998742521,,,,,,,,,,,,,,,,,,,,,,,,,,,,,001,2022-10-22_15h54.11.592,test9,2022.2.4,59.967893266602324,
,,,,,,,,2,nBack2Cond.xlsx,121,1,-0.2,0.2,space,2,172,,,,,,,,,,,,,0,1,1,1,0,52,52,52,,,,,,,,,,,,,,,,,,,,,,,,,,,,,,,,,,,,,,,,,863.2992918000091,863.2992918000091,863.2992918000091,863.2992918000091,863.2992918000091,863.2992918000091,863.2992918000091,863.2992918000091,863.2992918000091,863.2992918000091,864.2823415999301,864.2989241001196,865.2823520998936,None,,,,,,,,,,,,,,,,,,,,,,,,,,,,,,001,2022-10-22_15h54.11.592,test9,2022.2.4,59.967893266602324,
,,,,,,,,2,nBack2Cond.xlsx,121,2,0,0.2,None,2,173,,,,,,,,,,,,,0,1,1,1,0,53,53,53,,,,,,,,,,,,,,,,,,,,,,,,,,,,,,,,,,,,,,,,,865.3056330000982,865.3056330000982,865.3056330000982,865.3056330000982,865.3056330000982,865.3056330000982,865.3056330000982,865.3056330000982,865.3056330000982,865.3056330000982,866.2819620000664,866.3153405000921,867.2821432999335,None,,,,,,,,,,,,,,,,,,,,,,,,,,,,,,001,2022-10-22_15h54.11.592,test9,2022.2.4,59.967893266602324,
,,,,,,,,2,nBack2Cond.xlsx,121,1,-0.2,0.2,space,2,174,,,,,,,,,,,,,0,1,1,1,0,54,54,54,,,,,,,,,,,,,,,,,,,,,,,,,,,,,,,,,,,,,,,,,867.2990625998937,867.2990625998937,867.2990625998937,867.2990625998937,867.2990625998937,867.2990625998937,867.2990625998937,867.2990625998937,867.2990625998937,867.2990625998937,868.2822759000119,868.2983603999019,869.2817679001018,space,0.5133147998712957,,,,,,,,,,,,,,,,,,,,,,,,,,,,,001,2022-10-22_15h54.11.592,test9,2022.2.4,59.967893266602324,
,,,,,,,,2,nBack2Cond.xlsx,121,1,-0.2,0.2,None,2,175,,,,,,,,,,,,,0,1,1,1,0,55,55,55,,,,,,,,,,,,,,,,,,,,,,,,,,,,,,,,,,,,,,,,,869.2985849999823,869.2985849999823,869.2985849999823,869.2985849999823,869.2985849999823,869.2985849999823,869.2985849999823,869.2985849999823,869.2985849999823,869.2985849999823,870.281375200022,870.2982900000643,871.2812296999618,None,,,,,,,,,,,,,,,,,,,,,,,,,,,,,,001,2022-10-22_15h54.11.592,test9,2022.2.4,59.967893266602324,
,,,,,,,,2,nBack2Cond.xlsx,121,7,-0.2,-0.2,None,2,176,,,,,,,,,,,,,0,1,1,1,0,56,56,56,,,,,,,,,,,,,,,,,,,,,,,,,,,,,,,,,,,,,,,,,871.2979449001141,871.2979449001141,871.2979449001141,871.2979449001141,871.2979449001141,871.2979449001141,871.2979449001141,871.2979449001141,871.2979449001141,871.2979449001141,872.2811181000434,872.297742200084,873.2810549999122,None,,,,,,,,,,,,,,,,,,,,,,,,,,,,,,001,2022-10-22_15h54.11.592,test9,2022.2.4,59.967893266602324,
,,,,,,,,2,nBack2Cond.xlsx,121,2,0,0.2,None,2,177,,,,,,,,,,,,,0,1,1,1,0,57,57,57,,,,,,,,,,,,,,,,,,,,,,,,,,,,,,,,,,,,,,,,,873.299446299905,873.299446299905,873.299446299905,873.299446299905,873.299446299905,873.299446299905,873.299446299905,873.299446299905,873.299446299905,873.299446299905,874.2810188999865,874.3142864000984,875.2809172999114,None,,,,,,,,,,,,,,,,,,,,,,,,,,,,,,001,2022-10-22_15h54.11.592,test9,2022.2.4,59.967893266602324,
,,,,,,,,2,nBack2Cond.xlsx,121,7,-0.2,-0.2,space,2,178,,,,,,,,,,,,,0,1,1,1,0,58,58,58,,,,,,,,,,,,,,,,,,,,,,,,,,,,,,,,,,,,,,,,,875.2974809999578,875.2974809999578,875.2974809999578,875.2974809999578,875.2974809999578,875.2974809999578,875.2974809999578,875.2974809999578,875.2974809999578,875.2974809999578,876.2807644000277,876.2973430999555,877.280648099957,space,0.45560529991053045,,,,,,,,,,,,,,,,,,,,,,,,,,,,,001,2022-10-22_15h54.11.592,test9,2022.2.4,59.967893266602324,
,,,,,,,,2,nBack2Cond.xlsx,121,6,0.2,0,None,2,179,,,,,,,,,,,,,0,1,1,1,0,59,59,59,,,,,,,,,,,,,,,,,,,,,,,,,,,,,,,,,,,,,,,,,877.2972653000616,877.2972653000616,877.2972653000616,877.2972653000616,877.2972653000616,877.2972653000616,877.2972653000616,877.2972653000616,877.2972653000616,877.2972653000616,878.2805149001069,878.2970849999692,879.2803263000678,None,,,,,,,,,,,,,,,,,,,,,,,,,,,,,,001,2022-10-22_15h54.11.592,test9,2022.2.4,59.967893266602324,
,,,,,,,,2,nBack2Cond.xlsx,121,6,0.2,0,None,2,180,,,,,,,,,,,,,0,1,1,1,0,60,60,60,,,,,,,,,,,,,,,,,,,,,,,,,,,,,,,,,,,,,,,,,879.2971242999192,879.2971242999192,879.2971242999192,879.2971242999192,879.2971242999192,879.2971242999192,879.2971242999192,879.2971242999192,879.2971242999192,879.2971242999192,880.2802571000066,880.2968425001018,881.2800402999856,None,,,,,,,,,,,,,,,,,,,,,,,,,,,,,,001,2022-10-22_15h54.11.592,test9,2022.2.4,59.967893266602324,
,,,,,,,,2,nBack2Cond.xlsx,121,7,-0.2,-0.2,None,2,181,,,,,,,,,,,,,0,1,1,1,0,61,61,61,,,,,,,,,,,,,,,,,,,,,,,,,,,,,,,,,,,,,,,,,881.2967286999337,881.2967286999337,881.2967286999337,881.2967286999337,881.2967286999337,881.2967286999337,881.2967286999337,881.2967286999337,881.2967286999337,881.2967286999337,882.2800072999671,882.2965734999161,883.27978360001,space,0.3712950998451561,,,,,,,,,,,,,,,,,,,,,,,,,,,,,001,2022-10-22_15h54.11.592,test9,2022.2.4,59.967893266602324,
,,,,,,,,2,nBack2Cond.xlsx,121,2,0,0.2,None,2,182,,,,,,,,,,,,,0,1,1,1,0,62,62,62,,,,,,,,,,,,,,,,,,,,,,,,,,,,,,,,,,,,,,,,,883.2985628999304,883.2985628999304,883.2985628999304,883.2985628999304,883.2985628999304,883.2985628999304,883.2985628999304,883.2985628999304,883.2985628999304,883.2985628999304,884.2797193999868,884.3130717000458,885.2795881000347,None,,,,,,,,,,,,,,,,,,,,,,,,,,,,,,001,2022-10-22_15h54.11.592,test9,2022.2.4,59.967893266602324,
,,,,,,,,2,nBack2Cond.xlsx,121,7,-0.2,-0.2,space,2,183,,,,,,,,,,,,,0,1,1,1,0,63,63,63,,,,,,,,,,,,,,,,,,,,,,,,,,,,,,,,,,,,,,,,,885.2962877000682,885.2962877000682,885.2962877000682,885.2962877000682,885.2962877000682,885.2962877000682,885.2962877000682,885.2962877000682,885.2962877000682,885.2962877000682,886.2794085999485,886.2961564001162,887.279490099987,None,,,,,,,,,,,,,,,,,,,,,,,,,,,,,,001,2022-10-22_15h54.11.592,test9,2022.2.4,59.967893266602324,
,,,,,,,,2,nBack2Cond.xlsx,121,1,-0.2,0.2,None,2,184,,,,,,,,,,,,,0,1,1,1,0,64,64,64,,,,,,,,,,,,,,,,,,,,,,,,,,,,,,,,,,,,,,,,,887.2973084000405,887.2973084000405,887.2973084000405,887.2973084000405,887.2973084000405,887.2973084000405,887.2973084000405,887.2973084000405,887.2973084000405,887.2973084000405,888.2792175000068,888.3125612000003,889.2800233999733,None,,,,,,,,,,,,,,,,,,,,,,,,,,,,,,001,2022-10-22_15h54.11.592,test9,2022.2.4,59.967893266602324,
,,,,,,,,2,nBack2Cond.xlsx,121,1,-0.2,0.2,None,2,185,,,,,,,,,,,,,0,1,1,1,0,65,65,65,,,,,,,,,,,,,,,,,,,,,,,,,,,,,,,,,,,,,,,,,889.2963785999455,889.2963785999455,889.2963785999455,889.2963785999455,889.2963785999455,889.2963785999455,889.2963785999455,889.2963785999455,889.2963785999455,889.2963785999455,890.2790220000315,890.2956044001039,891.2789803000633,None,,,,,,,,,,,,,,,,,,,,,,,,,,,,,,001,2022-10-22_15h54.11.592,test9,2022.2.4,59.967893266602324,
,,,,,,,,2,nBack2Cond.xlsx,121,2,0,0.2,None,2,186,,,,,,,,,,,,,0,1,1,1,0,66,66,66,,,,,,,,,,,,,,,,,,,,,,,,,,,,,,,,,,,,,,,,,891.296811999986,891.296811999986,891.296811999986,891.296811999986,891.296811999986,891.296811999986,891.296811999986,891.296811999986,891.296811999986,891.296811999986,892.278794700047,892.3119900000747,893.2787725999951,None,,,,,,,,,,,,,,,,,,,,,,,,,,,,,,001,2022-10-22_15h54.11.592,test9,2022.2.4,59.967893266602324,
