eotrial,eocinstr,eocmarker1,eocmarker2,eocmarker3,eocmarker4,itemnumber,itemtext,nbackInstruction,condsFile,nbackmarker1,square,loc1,loc2,corrAns,trialsNum,trialNum,eoecloop.thisRepN,eoecloop.thisTrialN,eoecloop.thisN,eoecloop.thisIndex,wakeup.thisRepN,wakeup.thisTrialN,wakeup.thisN,wakeup.thisIndex,questions.thisRepN,questions.thisTrialN,questions.thisN,questions.thisIndex,nb_taskloop.thisRepN,nb_taskloop.thisTrialN,nb_taskloop.thisN,nb_taskloop.thisIndex,nb_trials.thisRepN,nb_trials.thisTrialN,nb_trials.thisN,nb_trials.thisIndex,key_resp_3.started,text_4.started,mouse_2.started,h_eoec.started,key_resp_3.keys,key_resp_3.rt,mouse_2.x,mouse_2.y,mouse_2.leftButton,mouse_2.midButton,mouse_2.rightButton,text_2.started,key_resp.started,key_resp.keys,text_8.started,key_resp_10.started,key_resp_10.keys,img_whte.started,img_black.started,text_5.started,key_resp_4.started,mouse.started,h_arsq.started,key_resp_4.keys,key_resp_4.rt,mouse.x,mouse.y,mouse.leftButton,mouse.midButton,mouse.rightButton,slider.started,text.started,key_resp_9.started,slider.response,slider.rt,key_resp_9.keys,instrText.started,h_nback.started,instrResp.started,instrImg.started,trialResp.started,trialSquare.started,gridLine1.started,gridLine2.started,gridLine3.started,gridLine4.started,gridLine5.started,gridLine6.started,gridLine7.started,gridLine8.started,trialFix.started,trialSquare.stopped,trialFix.stopped,trialResp.keys,trialResp.rt,trialResp.stopped,gridLine1.stopped,gridLine2.stopped,gridLine3.stopped,gridLine4.stopped,gridLine5.stopped,gridLine6.stopped,gridLine7.stopped,gridLine8.stopped,endText.started,key_resp_5.started,key_resp_5.keys,key_resp_5.rt,text_6.started,key_resp_6.started,h_movie.started,key_resp_6.keys,key_resp_6.rt,key_resp_8.started,movie.started,key_resp_8.keys,key_resp_8.rt,text_7.started,key_resp_7.started,text_7.stopped,key_resp_7.stopped,key_resp_7.keys,participant,session,date,expName,psychopyVersion,frameRate,
,,,,,,,,,,,,,,,,,,,,,,,,,,,,,,,,,,,,,27.410572599852458,27.410572599852458,3.609992563724518e-05,27.410572599852458,space,2.4211418002378196,,,,,,,,,,,,,,,,,,,,,,,,,,,,,,,,,,,,,,,,,,,,,,,,,,,,,,,,,,,,,,,,,,,,,,,,,,,,,,001,2022-10-22_16h23.27.811,test9,2022.2.4,59.952721328762756,
,,,,,,,,,,,,,,,,,,,,,,,,,,,,,,,,,,,,,,,,,,,0.03148148148148148,0.16666666666666666,0,0,0,,,,,,,,,,,,,,,,,,,,,,,,,,,,,,,,,,,,,,,,,,,,,,,,,,,,,,,,,,,,,,,,,,,,,,,,,001,2022-10-22_16h23.27.811,test9,2022.2.4,59.952721328762756,
1,eyes open,11,12,13,14,,,,,,,,,,,,0,0,0,0,,,,,,,,,,,,,,,,,,,,,,,,,,,,29.8820592998527,29.8820592998527,None,31.878287700004876,31.878287700004876,None,,,,,,,,,,,,,,,,,,,,,,,,,,,,,,,,,,,,,,,,,,,,,,,,,,,,,,,,,,,,,,,,,,,001,2022-10-22_16h23.27.811,test9,2022.2.4,59.952721328762756,
2,eyes closed,21,22,23,24,,,,,,,,,,,,0,1,1,1,,,,,,,,,,,,,,,,,,,,,,,,,,,,211.8733713000547,211.8733713000547,None,213.87130389991216,213.87130389991216,None,,,,,,,,,,,,,,,,,,,,,,,,,,,,,,,,,,,,,,,,,,,,,,,,,,,,,,,,,,,,,,,,,,,001,2022-10-22_16h23.27.811,test9,2022.2.4,59.952721328762756,
,,,,,,,,,,,,,,,,,,,,,0,0,0,0,,,,,,,,,,,,,,,,,,,,,,,,,,,,,,393.88128770003095,394.08135150000453,,,,,,,,,,,,,,,,,,,,,,,,,,,,,,,,,,,,,,,,,,,,,,,,,,,,,,,,,,,,,,,,,001,2022-10-22_16h23.27.811,test9,2022.2.4,59.952721328762756,
,,,,,,,,,,,,,,,,,,,,,1,0,1,0,,,,,,,,,,,,,,,,,,,,,,,,,,,,,,394.28131300001405,394.48126209992915,,,,,,,,,,,,,,,,,,,,,,,,,,,,,,,,,,,,,,,,,,,,,,,,,,,,,,,,,,,,,,,,,001,2022-10-22_16h23.27.811,test9,2022.2.4,59.952721328762756,
,,,,,,,,,,,,,,,,,,,,,2,0,2,0,,,,,,,,,,,,,,,,,,,,,,,,,,,,,,394.68129460001364,394.88124480005354,,,,,,,,,,,,,,,,,,,,,,,,,,,,,,,,,,,,,,,,,,,,,,,,,,,,,,,,,,,,,,,,,001,2022-10-22_16h23.27.811,test9,2022.2.4,59.952721328762756,
,,,,,,,,,,,,,,,,,,,,,3,0,3,0,,,,,,,,,,,,,,,,,,,,,,,,,,,,,,395.08116279984824,395.28116289991885,,,,,,,,,,,,,,,,,,,,,,,,,,,,,,,,,,,,,,,,,,,,,,,,,,,,,,,,,,,,,,,,,001,2022-10-22_16h23.27.811,test9,2022.2.4,59.952721328762756,
,,,,,,,,,,,,,,,,,,,,,,,,,,,,,,,,,,,,,,,,,,,,,,,,,,,,,,,,395.4813671000302,395.4813671000302,0.016178100369870663,395.4813671000302,space,2.616643800167367,,,,,,,,,,,,,,,,,,,,,,,,,,,,,,,,,,,,,,,,,,,,,,,,,,,,,,,,,,,001,2022-10-22_16h23.27.811,test9,2022.2.4,59.952721328762756,
,,,,,,,,,,,,,,,,,,,,,,,,,,,,,,,,,,,,,,,,,,,,,,,,,,,,,,,,,,,,,,0.887962962962963,-0.14074074074074075,0,0,0,,,,,,,,,,,,,,,,,,,,,,,,,,,,,,,,,,,,,,,,,,,,,,,,,,,,,,001,2022-10-22_16h23.27.811,test9,2022.2.4,59.952721328762756,
,,,,,,10,I thought about things I need to do,,,,,,,,,,,,,,,,,,0,0,0,9,,,,,,,,,,,,,,,,,,,,,,,,,,,,,,,,,,,,,,,398.2037537000142,398.2037537000142,398.2037537000142,3.0,4.795213400153443,None,,,,,,,,,,,,,,,,,,,,,,,,,,,,,,,,,,,,,,,,,,,,,,,,001,2022-10-22_16h23.27.811,test9,2022.2.4,59.952721328762756,
,,,,,,26,I thought in images,,,,,,,,,,,,,,,,,,0,1,1,25,,,,,,,,,,,,,,,,,,,,,,,,,,,,,,,,,,,,,,,403.15217310003936,403.15217310003936,403.15217310003936,3.0,2.051860500127077,None,,,,,,,,,,,,,,,,,,,,,,,,,,,,,,,,,,,,,,,,,,,,,,,,001,2022-10-22_16h23.27.811,test9,2022.2.4,59.952721328762756,
,,,,,,33,I felt motivated to participate,,,,,,,,,,,,,,,,,,0,2,2,32,,,,,,,,,,,,,,,,,,,,,,,,,,,,,,,,,,,,,,,405.42743459995836,405.42743459995836,405.42743459995836,3.0,3.454086699988693,None,,,,,,,,,,,,,,,,,,,,,,,,,,,,,,,,,,,,,,,,,,,,,,,,001,2022-10-22_16h23.27.811,test9,2022.2.4,59.952721328762756,
,,,,,,20,I thought about my breathing,,,,,,,,,,,,,,,,,,0,3,3,19,,,,,,,,,,,,,,,,,,,,,,,,,,,,,,,,,,,,,,,409.1021533999592,409.1021533999592,409.1021533999592,4.0,2.5518619001377374,None,,,,,,,,,,,,,,,,,,,,,,,,,,,,,,,,,,,,,,,,,,,,,,,,001,2022-10-22_16h23.27.811,test9,2022.2.4,59.952721328762756,
,,,,,,22,I felt ill,,,,,,,,,,,,,,,,,,0,4,4,21,,,,,,,,,,,,,,,,,,,,,,,,,,,,,,,,,,,,,,,411.86270599998534,411.86270599998534,411.86270599998534,1.0,2.243913499871269,None,,,,,,,,,,,,,,,,,,,,,,,,,,,,,,,,,,,,,,,,,,,,,,,,001,2022-10-22_16h23.27.811,test9,2022.2.4,59.952721328762756,
,,,,,,17,I felt relaxed,,,,,,,,,,,,,,,,,,0,5,5,16,,,,,,,,,,,,,,,,,,,,,,,,,,,,,,,,,,,,,,,414.321445700014,414.321445700014,414.321445700014,3.0,1.8729180998634547,None,,,,,,,,,,,,,,,,,,,,,,,,,,,,,,,,,,,,,,,,,,,,,,,,001,2022-10-22_16h23.27.811,test9,2022.2.4,59.952721328762756,
,,,,,,24,I felt pain,,,,,,,,,,,,,,,,,,0,6,6,23,,,,,,,,,,,,,,,,,,,,,,,,,,,,,,,,,,,,,,,416.413073600037,416.413073600037,416.413073600037,3.0,1.2770491999108344,None,,,,,,,,,,,,,,,,,,,,,,,,,,,,,,,,,,,,,,,,,,,,,,,,001,2022-10-22_16h23.27.811,test9,2022.2.4,59.952721328762756,
,,,,,,9,I thought about myself,,,,,,,,,,,,,,,,,,0,7,7,8,,,,,,,,,,,,,,,,,,,,,,,,,,,,,,,,,,,,,,,417.9065568000078,417.9065568000078,417.9065568000078,4.0,4.213695300044492,None,,,,,,,,,,,,,,,,,,,,,,,,,,,,,,,,,,,,,,,,,,,,,,,,001,2022-10-22_16h23.27.811,test9,2022.2.4,59.952721328762756,
,,,,,,35,I was able to rate the statements,,,,,,,,,,,,,,,,,,0,8,8,34,,,,,,,,,,,,,,,,,,,,,,,,,,,,,,,,,,,,,,,422.3368955999613,422.3368955999613,422.3368955999613,4.0,2.59297990007326,None,,,,,,,,,,,,,,,,,,,,,,,,,,,,,,,,,,,,,,,,,,,,,,,,001,2022-10-22_16h23.27.811,test9,2022.2.4,59.952721328762756,
,,,,,,15,I had difficulty staying awake,,,,,,,,,,,,,,,,,,0,9,9,14,,,,,,,,,,,,,,,,,,,,,,,,,,,,,,,,,,,,,,,425.1435344000347,425.1435344000347,425.1435344000347,2.0,1.7655838001519442,None,,,,,,,,,,,,,,,,,,,,,,,,,,,,,,,,,,,,,,,,,,,,,,,,001,2022-10-22_16h23.27.811,test9,2022.2.4,59.952721328762756,
,,,,,,5,I placed myself in other peoples shoes,,,,,,,,,,,,,,,,,,0,10,10,4,,,,,,,,,,,,,,,,,,,,,,,,,,,,,,,,,,,,,,,427.12631059996784,427.12631059996784,427.12631059996784,2.0,2.515026800101623,None,,,,,,,,,,,,,,,,,,,,,,,,,,,,,,,,,,,,,,,,,,,,,,,,001,2022-10-22_16h23.27.811,test9,2022.2.4,59.952721328762756,
,,,,,,14,I felt sleepy,,,,,,,,,,,,,,,,,,0,11,11,13,,,,,,,,,,,,,,,,,,,,,,,,,,,,,,,,,,,,,,,429.87148820003495,429.87148820003495,429.87148820003495,3.0,1.2521347999572754,None,,,,,,,,,,,,,,,,,,,,,,,,,,,,,,,,,,,,,,,,,,,,,,,,001,2022-10-22_16h23.27.811,test9,2022.2.4,59.952721328762756,
,,,,,,4,I thought about others,,,,,,,,,,,,,,,,,,0,12,12,3,,,,,,,,,,,,,,,,,,,,,,,,,,,,,,,,,,,,,,,431.33296589995734,431.33296589995734,431.33296589995734,3.0,2.04886500001885,None,,,,,,,,,,,,,,,,,,,,,,,,,,,,,,,,,,,,,,,,,,,,,,,,001,2022-10-22_16h23.27.811,test9,2022.2.4,59.952721328762756,
,,,,,,28,I had silent conversations,,,,,,,,,,,,,,,,,,0,13,13,27,,,,,,,,,,,,,,,,,,,,,,,,,,,,,,,,,,,,,,,433.5918095000088,433.5918095000088,433.5918095000088,3.0,1.3979655001312494,None,,,,,,,,,,,,,,,,,,,,,,,,,,,,,,,,,,,,,,,,,,,,,,,,001,2022-10-22_16h23.27.811,test9,2022.2.4,59.952721328762756,
,,,,,,16,I felt comfortable,,,,,,,,,,,,,,,,,,0,14,14,15,,,,,,,,,,,,,,,,,,,,,,,,,,,,,,,,,,,,,,,435.2224959998857,435.2224959998857,435.2224959998857,3.0,2.100424600066617,None,,,,,,,,,,,,,,,,,,,,,,,,,,,,,,,,,,,,,,,,,,,,,,,,001,2022-10-22_16h23.27.811,test9,2022.2.4,59.952721328762756,
,,,,,,29,I thought in words,,,,,,,,,,,,,,,,,,0,15,15,28,,,,,,,,,,,,,,,,,,,,,,,,,,,,,,,,,,,,,,,437.52224770002067,437.52224770002067,437.52224770002067,4.0,1.7318486000876874,None,,,,,,,,,,,,,,,,,,,,,,,,,,,,,,,,,,,,,,,,,,,,,,,,001,2022-10-22_16h23.27.811,test9,2022.2.4,59.952721328762756,
,,,,,,31,I had difficulty remembering my thoughts,,,,,,,,,,,,,,,,,,0,16,16,30,,,,,,,,,,,,,,,,,,,,,,,,,,,,,,,,,,,,,,,439.4757890999317,439.4757890999317,439.4757890999317,2.0,2.39074970013462,None,,,,,,,,,,,,,,,,,,,,,,,,,,,,,,,,,,,,,,,,,,,,,,,,001,2022-10-22_16h23.27.811,test9,2022.2.4,59.952721328762756,
,,,,,,2,I had rapidly switching thoughts,,,,,,,,,,,,,,,,,,0,17,17,1,,,,,,,,,,,,,,,,,,,,,,,,,,,,,,,,,,,,,,,442.0833604999352,442.0833604999352,442.0833604999352,3.0,1.4502091000322253,None,,,,,,,,,,,,,,,,,,,,,,,,,,,,,,,,,,,,,,,,,,,,,,,,001,2022-10-22_16h23.27.811,test9,2022.2.4,59.952721328762756,
,,,,,,19,I was conscious of my body,,,,,,,,,,,,,,,,,,0,18,18,18,,,,,,,,,,,,,,,,,,,,,,,,,,,,,,,,,,,,,,,443.75967000005767,443.75967000005767,443.75967000005767,4.0,1.7157181000802666,None,,,,,,,,,,,,,,,,,,,,,,,,,,,,,,,,,,,,,,,,,,,,,,,,001,2022-10-22_16h23.27.811,test9,2022.2.4,59.952721328762756,
,,,,,,6,I thought about people I like,,,,,,,,,,,,,,,,,,0,19,19,5,,,,,,,,,,,,,,,,,,,,,,,,,,,,,,,,,,,,,,,445.6924661998637,445.6924661998637,445.6924661998637,4.0,2.372367199975997,None,,,,,,,,,,,,,,,,,,,,,,,,,,,,,,,,,,,,,,,,,,,,,,,,001,2022-10-22_16h23.27.811,test9,2022.2.4,59.952721328762756,
,,,,,,13,I felt tired,,,,,,,,,,,,,,,,,,0,20,20,12,,,,,,,,,,,,,,,,,,,,,,,,,,,,,,,,,,,,,,,448.2915115999058,448.2915115999058,448.2915115999058,3.0,1.7651029999833554,None,,,,,,,,,,,,,,,,,,,,,,,,,,,,,,,,,,,,,,,,,,,,,,,,001,2022-10-22_16h23.27.811,test9,2022.2.4,59.952721328762756,
,,,,,,8,I thought about my behavior,,,,,,,,,,,,,,,,,,0,21,21,7,,,,,,,,,,,,,,,,,,,,,,,,,,,,,,,,,,,,,,,450.2805283998605,450.2805283998605,450.2805283998605,2.0,1.6158310000319034,None,,,,,,,,,,,,,,,,,,,,,,,,,,,,,,,,,,,,,,,,,,,,,,,,001,2022-10-22_16h23.27.811,test9,2022.2.4,59.952721328762756,
,,,,,,1,I had busy thoughts,,,,,,,,,,,,,,,,,,0,22,22,0,,,,,,,,,,,,,,,,,,,,,,,,,,,,,,,,,,,,,,,452.10029249987565,452.10029249987565,452.10029249987565,2.0,1.6225956999696791,None,,,,,,,,,,,,,,,,,,,,,,,,,,,,,,,,,,,,,,,,,,,,,,,,001,2022-10-22_16h23.27.811,test9,2022.2.4,59.952721328762756,
,,,,,,32,I had difficulty remembering my feelings,,,,,,,,,,,,,,,,,,0,23,23,31,,,,,,,,,,,,,,,,,,,,,,,,,,,,,,,,,,,,,,,453.94323510001414,453.94323510001414,453.94323510001414,2.0,2.0023407000117004,None,,,,,,,,,,,,,,,,,,,,,,,,,,,,,,,,,,,,,,,,,,,,,,,,001,2022-10-22_16h23.27.811,test9,2022.2.4,59.952721328762756,
,,,,,,12,I thought about the future,,,,,,,,,,,,,,,,,,0,24,24,11,,,,,,,,,,,,,,,,,,,,,,,,,,,,,,,,,,,,,,,456.1609809000511,456.1609809000511,456.1609809000511,3.0,4.111505800159648,None,,,,,,,,,,,,,,,,,,,,,,,,,,,,,,,,,,,,,,,,,,,,,,,,001,2022-10-22_16h23.27.811,test9,2022.2.4,59.952721328762756,
,,,,,,21,I thought about my heartbeat,,,,,,,,,,,,,,,,,,0,25,25,20,,,,,,,,,,,,,,,,,,,,,,,,,,,,,,,,,,,,,,,460.5087631000206,460.5087631000206,460.5087631000206,3.0,1.749595700064674,None,,,,,,,,,,,,,,,,,,,,,,,,,,,,,,,,,,,,,,,,,,,,,,,,001,2022-10-22_16h23.27.811,test9,2022.2.4,59.952721328762756,
,,,,,,27,I pictured places,,,,,,,,,,,,,,,,,,0,26,26,26,,,,,,,,,,,,,,,,,,,,,,,,,,,,,,,,,,,,,,,462.46955009992234,462.46955009992234,462.46955009992234,3.0,1.2344131001736969,None,,,,,,,,,,,,,,,,,,,,,,,,,,,,,,,,,,,,,,,,,,,,,,,,001,2022-10-22_16h23.27.811,test9,2022.2.4,59.952721328762756,
,,,,,,30,I imagined talking to myself,,,,,,,,,,,,,,,,,,0,27,27,29,,,,,,,,,,,,,,,,,,,,,,,,,,,,,,,,,,,,,,,463.91218369989656,463.91218369989656,463.91218369989656,2.0,5.156277599977329,None,,,,,,,,,,,,,,,,,,,,,,,,,,,,,,,,,,,,,,,,,,,,,,,,001,2022-10-22_16h23.27.811,test9,2022.2.4,59.952721328762756,
,,,,,,7,I thought about my feelings,,,,,,,,,,,,,,,,,,0,28,28,6,,,,,,,,,,,,,,,,,,,,,,,,,,,,,,,,,,,,,,,469.2859328999184,469.2859328999184,469.2859328999184,2.0,1.6405040000099689,None,,,,,,,,,,,,,,,,,,,,,,,,,,,,,,,,,,,,,,,,,,,,,,,,001,2022-10-22_16h23.27.811,test9,2022.2.4,59.952721328762756,
,,,,,,34,I had my eyes closed,,,,,,,,,,,,,,,,,,0,29,29,33,,,,,,,,,,,,,,,,,,,,,,,,,,,,,,,,,,,,,,,471.1517483999487,471.1517483999487,471.1517483999487,3.0,1.4010467000771314,None,,,,,,,,,,,,,,,,,,,,,,,,,,,,,,,,,,,,,,,,,,,,,,,,001,2022-10-22_16h23.27.811,test9,2022.2.4,59.952721328762756,
,,,,,,23,I thought about my health,,,,,,,,,,,,,,,,,,0,30,30,22,,,,,,,,,,,,,,,,,,,,,,,,,,,,,,,,,,,,,,,472.78261210001074,472.78261210001074,472.78261210001074,3.0,3.7502154998946935,None,,,,,,,,,,,,,,,,,,,,,,,,,,,,,,,,,,,,,,,,,,,,,,,,001,2022-10-22_16h23.27.811,test9,2022.2.4,59.952721328762756,
,,,,,,3,I had difficulty holding on to my thoughts,,,,,,,,,,,,,,,,,,0,31,31,2,,,,,,,,,,,,,,,,,,,,,,,,,,,,,,,,,,,,,,,476.73757070000283,476.73757070000283,476.73757070000283,2.0,1.9700541999191046,None,,,,,,,,,,,,,,,,,,,,,,,,,,,,,,,,,,,,,,,,,,,,,,,,001,2022-10-22_16h23.27.811,test9,2022.2.4,59.952721328762756,
,,,,,,11,I thought about solving problems,,,,,,,,,,,,,,,,,,0,32,32,10,,,,,,,,,,,,,,,,,,,,,,,,,,,,,,,,,,,,,,,478.91722089983523,478.91722089983523,478.91722089983523,3.0,1.8827412000391632,None,,,,,,,,,,,,,,,,,,,,,,,,,,,,,,,,,,,,,,,,,,,,,,,,001,2022-10-22_16h23.27.811,test9,2022.2.4,59.952721328762756,
,,,,,,25,I pictured events,,,,,,,,,,,,,,,,,,0,33,33,24,,,,,,,,,,,,,,,,,,,,,,,,,,,,,,,,,,,,,,,481.01973439985886,481.01973439985886,481.01973439985886,3.0,1.7182352000381798,None,,,,,,,,,,,,,,,,,,,,,,,,,,,,,,,,,,,,,,,,,,,,,,,,001,2022-10-22_16h23.27.811,test9,2022.2.4,59.952721328762756,
,,,,,,18,I felt happy,,,,,,,,,,,,,,,,,,0,34,34,17,,,,,,,,,,,,,,,,,,,,,,,,,,,,,,,,,,,,,,,482.9565693999175,482.9565693999175,482.9565693999175,4.0,1.1093154000118375,None,,,,,,,,,,,,,,,,,,,,,,,,,,,,,,,,,,,,,,,,,,,,,,,,001,2022-10-22_16h23.27.811,test9,2022.2.4,59.952721328762756,
,,,,,,,,1,nBack1Cond.xlsx,111,6,0.2,0,None,1,1,,,,,,,,,,,,,0,0,0,0,0,0,0,0,,,,,,,,,,,,,,,,,,,,,,,,,,,,,,,,,,,,,484.35685219988227,484.35685219988227,484.35685219988227,484.35685219988227,486.9119893000461,486.9119893000461,486.9119893000461,486.9119893000461,486.9119893000461,486.9119893000461,486.9119893000461,486.9119893000461,486.9119893000461,486.9119893000461,487.8522645998746,487.91901149996556,488.8522329998668,None,,,,,,,,,,,,,,,,,,,,,,,,,,,,,,001,2022-10-22_16h23.27.811,test9,2022.2.4,59.952721328762756,
,,,,,,,,1,nBack1Cond.xlsx,111,6,0.2,0,space,1,2,,,,,,,,,,,,,0,0,0,0,0,1,1,1,,,,,,,,,,,,,,,,,,,,,,,,,,,,,,,,,,,,,,,,,488.8703938999679,488.8703938999679,488.8703938999679,488.8703938999679,488.8703938999679,488.8703938999679,488.8703938999679,488.8703938999679,488.8703938999679,488.8703938999679,489.8535184999928,489.86856219987385,,space,0.36240540025755763,,,,,,,,,,,,,,,,,,,,,,,,,,,,,001,2022-10-22_16h23.27.811,test9,2022.2.4,59.952721328762756,
,,,,,,,,1,nBack1Cond.xlsx,111,2,0,0.2,None,1,3,,,,,,,,,,,,,0,0,0,0,0,2,2,2,,,,,,,,,,,,,,,,,,,,,,,,,,,,,,,,,,,,,,,,,490.86978910001926,490.86978910001926,490.86978910001926,490.86978910001926,490.86978910001926,490.86978910001926,490.86978910001926,490.86978910001926,490.86978910001926,490.86978910001926,491.85214450000785,491.8683837999124,492.85167700005695,None,,,,,,,,,,,,,,,,,,,,,,,,,,,,,,001,2022-10-22_16h23.27.811,test9,2022.2.4,59.952721328762756,
,,,,,,,,1,nBack1Cond.xlsx,111,9,0.2,-0.2,None,1,4,,,,,,,,,,,,,0,0,0,0,0,3,3,3,,,,,,,,,,,,,,,,,,,,,,,,,,,,,,,,,,,,,,,,,492.8683704000432,492.8683704000432,492.8683704000432,492.8683704000432,492.8683704000432,492.8683704000432,492.8683704000432,492.8683704000432,492.8683704000432,492.8683704000432,493.85228129988536,493.86835929984227,494.85142159997486,None,,,,,,,,,,,,,,,,,,,,,,,,,,,,,,001,2022-10-22_16h23.27.811,test9,2022.2.4,59.952721328762756,
,,,,,,,,1,nBack1Cond.xlsx,111,9,0.2,-0.2,space,1,5,,,,,,,,,,,,,0,0,0,0,0,4,4,4,,,,,,,,,,,,,,,,,,,,,,,,,,,,,,,,,,,,,,,,,494.86906079994515,494.86906079994515,494.86906079994515,494.86906079994515,494.86906079994515,494.86906079994515,494.86906079994515,494.86906079994515,494.86906079994515,494.86906079994515,495.85193110001273,495.8681335998699,496.8513585999608,space,0.3245363002642989,,,,,,,,,,,,,,,,,,,,,,,,,,,,,001,2022-10-22_16h23.27.811,test9,2022.2.4,59.952721328762756,
,,,,,,,,1,nBack1Cond.xlsx,111,6,0.2,0,None,1,6,,,,,,,,,,,,,0,0,0,0,0,5,5,5,,,,,,,,,,,,,,,,,,,,,,,,,,,,,,,,,,,,,,,,,496.86804339988157,496.86804339988157,496.86804339988157,496.86804339988157,496.86804339988157,496.86804339988157,496.86804339988157,496.86804339988157,496.86804339988157,496.86804339988157,497.85228029987775,497.8676320000086,,None,,,,,,,,,,,,,,,,,,,,,,,,,,,,,,001,2022-10-22_16h23.27.811,test9,2022.2.4,59.952721328762756,
,,,,,,,,1,nBack1Cond.xlsx,111,4,-0.2,0,None,1,7,,,,,,,,,,,,,0,0,0,0,0,6,6,6,,,,,,,,,,,,,,,,,,,,,,,,,,,,,,,,,,,,,,,,,498.8679943999741,498.8679943999741,498.8679943999741,498.8679943999741,498.8679943999741,498.8679943999741,498.8679943999741,498.8679943999741,498.8679943999741,498.8679943999741,499.85081589990295,499.86728490004316,500.8504850999452,None,,,,,,,,,,,,,,,,,,,,,,,,,,,,,,001,2022-10-22_16h23.27.811,test9,2022.2.4,59.952721328762756,
,,,,,,,,1,nBack1Cond.xlsx,111,3,0.2,0.2,None,1,8,,,,,,,,,,,,,0,0,0,0,0,7,7,7,,,,,,,,,,,,,,,,,,,,,,,,,,,,,,,,,,,,,,,,,500.86855629994534,500.86855629994534,500.86855629994534,500.86855629994534,500.86855629994534,500.86855629994534,500.86855629994534,500.86855629994534,500.86855629994534,500.86855629994534,501.85096599999815,501.8672117998358,502.85036879987456,None,,,,,,,,,,,,,,,,,,,,,,,,,,,,,,001,2022-10-22_16h23.27.811,test9,2022.2.4,59.952721328762756,
,,,,,,,,1,nBack1Cond.xlsx,111,3,0.2,0.2,space,1,9,,,,,,,,,,,,,0,0,0,0,0,8,8,8,,,,,,,,,,,,,,,,,,,,,,,,,,,,,,,,,,,,,,,,,502.86763989995234,502.86763989995234,502.86763989995234,502.86763989995234,502.86763989995234,502.86763989995234,502.86763989995234,502.86763989995234,502.86763989995234,502.86763989995234,503.85042209993117,503.86677229986526,504.85014460003003,space,0.4850014001131058,,,,,,,,,,,,,,,,,,,,,,,,,,,,,001,2022-10-22_16h23.27.811,test9,2022.2.4,59.952721328762756,
,,,,,,,,1,nBack1Cond.xlsx,111,8,0,-0.2,None,1,10,,,,,,,,,,,,,0,0,0,0,0,9,9,9,,,,,,,,,,,,,,,,,,,,,,,,,,,,,,,,,,,,,,,,,504.8678675000556,504.8678675000556,504.8678675000556,504.8678675000556,504.8678675000556,504.8678675000556,504.8678675000556,504.8678675000556,504.8678675000556,504.8678675000556,505.8499896998983,505.8831767998636,506.84997610002756,None,,,,,,,,,,,,,,,,,,,,,,,,,,,,,,001,2022-10-22_16h23.27.811,test9,2022.2.4,59.952721328762756,
,,,,,,,,1,nBack1Cond.xlsx,111,1,-0.2,0.2,None,1,11,,,,,,,,,,,,,0,0,0,0,0,10,10,10,,,,,,,,,,,,,,,,,,,,,,,,,,,,,,,,,,,,,,,,,506.86755109997466,506.86755109997466,506.86755109997466,506.86755109997466,506.86755109997466,506.86755109997466,506.86755109997466,506.86755109997466,506.86755109997466,506.86755109997466,507.84991969983093,507.8663951999042,508.8496907998342,None,,,,,,,,,,,,,,,,,,,,,,,,,,,,,,001,2022-10-22_16h23.27.811,test9,2022.2.4,59.952721328762756,
,,,,,,,,1,nBack1Cond.xlsx,111,2,0,0.2,None,1,12,,,,,,,,,,,,,0,0,0,0,0,11,11,11,,,,,,,,,,,,,,,,,,,,,,,,,,,,,,,,,,,,,,,,,508.8676833999343,508.8676833999343,508.8676833999343,508.8676833999343,508.8676833999343,508.8676833999343,508.8676833999343,508.8676833999343,508.8676833999343,508.8676833999343,509.84944649995305,509.88259609998204,510.84937660000287,None,,,,,,,,,,,,,,,,,,,,,,,,,,,,,,001,2022-10-22_16h23.27.811,test9,2022.2.4,59.952721328762756,
,,,,,,,,1,nBack1Cond.xlsx,111,4,-0.2,0,None,1,13,,,,,,,,,,,,,0,0,0,0,0,12,12,12,,,,,,,,,,,,,,,,,,,,,,,,,,,,,,,,,,,,,,,,,510.86601220001467,510.86601220001467,510.86601220001467,510.86601220001467,510.86601220001467,510.86601220001467,510.86601220001467,510.86601220001467,510.86601220001467,510.86601220001467,511.84933519992046,511.86580160004087,512.8491255999543,None,,,,,,,,,,,,,,,,,,,,,,,,,,,,,,001,2022-10-22_16h23.27.811,test9,2022.2.4,59.952721328762756,
,,,,,,,,1,nBack1Cond.xlsx,111,4,-0.2,0,space,1,14,,,,,,,,,,,,,0,0,0,0,0,13,13,13,,,,,,,,,,,,,,,,,,,,,,,,,,,,,,,,,,,,,,,,,512.8667272999883,512.8667272999883,512.8667272999883,512.8667272999883,512.8667272999883,512.8667272999883,512.8667272999883,512.8667272999883,512.8667272999883,512.8667272999883,513.8493725999724,513.8656025000382,514.8487668000162,space,0.504363700048998,,,,,,,,,,,,,,,,,,,,,,,,,,,,,001,2022-10-22_16h23.27.811,test9,2022.2.4,59.952721328762756,
,,,,,,,,1,nBack1Cond.xlsx,111,8,0,-0.2,None,1,15,,,,,,,,,,,,,0,0,0,0,0,14,14,14,,,,,,,,,,,,,,,,,,,,,,,,,,,,,,,,,,,,,,,,,514.8658421998844,514.8658421998844,514.8658421998844,514.8658421998844,514.8658421998844,514.8658421998844,514.8658421998844,514.8658421998844,514.8658421998844,514.8658421998844,515.8487159998622,515.865453899838,516.8485806998797,None,,,,,,,,,,,,,,,,,,,,,,,,,,,,,,001,2022-10-22_16h23.27.811,test9,2022.2.4,59.952721328762756,
,,,,,,,,1,nBack1Cond.xlsx,111,5,0,0,None,1,16,,,,,,,,,,,,,0,0,0,0,0,15,15,15,,,,,,,,,,,,,,,,,,,,,,,,,,,,,,,,,,,,,,,,,516.8651349998545,516.8651349998545,516.8651349998545,516.8651349998545,516.8651349998545,516.8651349998545,516.8651349998545,516.8651349998545,516.8651349998545,516.8651349998545,517.8484928000253,517.8650720999576,518.8483078998979,None,,,,,,,,,,,,,,,,,,,,,,,,,,,,,,001,2022-10-22_16h23.27.811,test9,2022.2.4,59.952721328762756,
,,,,,,,,1,nBack1Cond.xlsx,111,5,0,0,space,1,17,,,,,,,,,,,,,0,0,0,0,0,16,16,16,,,,,,,,,,,,,,,,,,,,,,,,,,,,,,,,,,,,,,,,,518.8665700999554,518.8665700999554,518.8665700999554,518.8665700999554,518.8665700999554,518.8665700999554,518.8665700999554,518.8665700999554,518.8665700999554,518.8665700999554,519.8482075999491,519.8814003998414,520.8480416999664,space,0.39192990004085004,,,,,,,,,,,,,,,,,,,,,,,,,,,,,001,2022-10-22_16h23.27.811,test9,2022.2.4,59.952721328762756,
,,,,,,,,1,nBack1Cond.xlsx,111,1,-0.2,0.2,None,1,18,,,,,,,,,,,,,0,0,0,0,0,17,17,17,,,,,,,,,,,,,,,,,,,,,,,,,,,,,,,,,,,,,,,,,520.8645790000446,520.8645790000446,520.8645790000446,520.8645790000446,520.8645790000446,520.8645790000446,520.8645790000446,520.8645790000446,520.8645790000446,520.8645790000446,521.8478967000265,521.8645213998388,522.8478174998891,None,,,,,,,,,,,,,,,,,,,,,,,,,,,,,,001,2022-10-22_16h23.27.811,test9,2022.2.4,59.952721328762756,
,,,,,,,,1,nBack1Cond.xlsx,111,3,0.2,0.2,None,1,19,,,,,,,,,,,,,0,0,0,0,0,18,18,18,,,,,,,,,,,,,,,,,,,,,,,,,,,,,,,,,,,,,,,,,522.8644576000515,522.8644576000515,522.8644576000515,522.8644576000515,522.8644576000515,522.8644576000515,522.8644576000515,522.8644576000515,522.8644576000515,522.8644576000515,523.847622100031,523.8644508998841,524.8476040000096,None,,,,,,,,,,,,,,,,,,,,,,,,,,,,,,001,2022-10-22_16h23.27.811,test9,2022.2.4,59.952721328762756,
,,,,,,,,1,nBack1Cond.xlsx,111,6,0.2,0,None,1,20,,,,,,,,,,,,,0,0,0,0,0,19,19,19,,,,,,,,,,,,,,,,,,,,,,,,,,,,,,,,,,,,,,,,,524.8652800999116,524.8652800999116,524.8652800999116,524.8652800999116,524.8652800999116,524.8652800999116,524.8652800999116,524.8652800999116,524.8652800999116,524.8652800999116,525.8473771000281,525.8807143999729,526.8472730000503,None,,,,,,,,,,,,,,,,,,,,,,,,,,,,,,001,2022-10-22_16h23.27.811,test9,2022.2.4,59.952721328762756,
,,,,,,,,1,nBack1Cond.xlsx,111,1,-0.2,0.2,None,1,21,,,,,,,,,,,,,0,0,0,0,0,20,20,20,,,,,,,,,,,,,,,,,,,,,,,,,,,,,,,,,,,,,,,,,526.8647677998524,526.8647677998524,526.8647677998524,526.8647677998524,526.8647677998524,526.8647677998524,526.8647677998524,526.8647677998524,526.8647677998524,526.8647677998524,527.8471629000269,527.8638190999627,528.8470495999791,None,,,,,,,,,,,,,,,,,,,,,,,,,,,,,,001,2022-10-22_16h23.27.811,test9,2022.2.4,59.952721328762756,
,,,,,,,,1,nBack1Cond.xlsx,111,1,-0.2,0.2,space,1,22,,,,,,,,,,,,,0,0,0,0,0,21,21,21,,,,,,,,,,,,,,,,,,,,,,,,,,,,,,,,,,,,,,,,,528.8650895999745,528.8650895999745,528.8650895999745,528.8650895999745,528.8650895999745,528.8650895999745,528.8650895999745,528.8650895999745,528.8650895999745,528.8650895999745,529.8468708000146,529.8800939000212,530.846826300025,space,0.6005023000761867,,,,,,,,,,,,,,,,,,,,,,,,,,,,,001,2022-10-22_16h23.27.811,test9,2022.2.4,59.952721328762756,
,,,,,,,,1,nBack1Cond.xlsx,111,1,-0.2,0.2,space,1,23,,,,,,,,,,,,,0,0,0,0,0,22,22,22,,,,,,,,,,,,,,,,,,,,,,,,,,,,,,,,,,,,,,,,,530.8635601999704,530.8635601999704,530.8635601999704,530.8635601999704,530.8635601999704,530.8635601999704,530.8635601999704,530.8635601999704,530.8635601999704,530.8635601999704,531.8467091999482,531.8632618999109,532.8465086999349,space,1.1209511002525687,,,,,,,,,,,,,,,,,,,,,,,,,,,,,001,2022-10-22_16h23.27.811,test9,2022.2.4,59.952721328762756,
,,,,,,,,1,nBack1Cond.xlsx,111,3,0.2,0.2,None,1,24,,,,,,,,,,,,,0,0,0,0,0,23,23,23,,,,,,,,,,,,,,,,,,,,,,,,,,,,,,,,,,,,,,,,,532.8631839000154,532.8631839000154,532.8631839000154,532.8631839000154,532.8631839000154,532.8631839000154,532.8631839000154,532.8631839000154,532.8631839000154,532.8631839000154,533.8464114998933,533.8629719999153,534.8463795999996,None,,,,,,,,,,,,,,,,,,,,,,,,,,,,,,001,2022-10-22_16h23.27.811,test9,2022.2.4,59.952721328762756,
,,,,,,,,1,nBack1Cond.xlsx,111,2,0,0.2,None,1,25,,,,,,,,,,,,,0,0,0,0,0,24,24,24,,,,,,,,,,,,,,,,,,,,,,,,,,,,,,,,,,,,,,,,,534.8636851999909,534.8636851999909,534.8636851999909,534.8636851999909,534.8636851999909,534.8636851999909,534.8636851999909,534.8636851999909,534.8636851999909,534.8636851999909,535.8462078999728,535.8627591000404,536.8458897999953,None,,,,,,,,,,,,,,,,,,,,,,,,,,,,,,001,2022-10-22_16h23.27.811,test9,2022.2.4,59.952721328762756,
,,,,,,,,1,nBack1Cond.xlsx,111,1,-0.2,0.2,None,1,26,,,,,,,,,,,,,0,0,0,0,0,25,25,25,,,,,,,,,,,,,,,,,,,,,,,,,,,,,,,,,,,,,,,,,536.867317999946,536.867317999946,536.867317999946,536.867317999946,536.867317999946,536.867317999946,536.867317999946,536.867317999946,536.867317999946,536.867317999946,537.8457806999795,537.8797861998901,538.8457939999644,None,,,,,,,,,,,,,,,,,,,,,,,,,,,,,,001,2022-10-22_16h23.27.811,test9,2022.2.4,59.952721328762756,
,,,,,,,,1,nBack1Cond.xlsx,111,7,-0.2,-0.2,None,1,27,,,,,,,,,,,,,0,0,0,0,0,26,26,26,,,,,,,,,,,,,,,,,,,,,,,,,,,,,,,,,,,,,,,,,538.8624056999106,538.8624056999106,538.8624056999106,538.8624056999106,538.8624056999106,538.8624056999106,538.8624056999106,538.8624056999106,538.8624056999106,538.8624056999106,539.8455497999676,539.8622122998349,540.8455453000497,None,,,,,,,,,,,,,,,,,,,,,,,,,,,,,,001,2022-10-22_16h23.27.811,test9,2022.2.4,59.952721328762756,
,,,,,,,,1,nBack1Cond.xlsx,111,7,-0.2,-0.2,space,1,28,,,,,,,,,,,,,0,0,0,0,0,27,27,27,,,,,,,,,,,,,,,,,,,,,,,,,,,,,,,,,,,,,,,,,540.8622022999916,540.8622022999916,540.8622022999916,540.8622022999916,540.8622022999916,540.8622022999916,540.8622022999916,540.8622022999916,540.8622022999916,540.8622022999916,541.8454619999975,541.8619537998457,542.8452506000176,space,0.6464031001087278,,,,,,,,,,,,,,,,,,,,,,,,,,,,,001,2022-10-22_16h23.27.811,test9,2022.2.4,59.952721328762756,
,,,,,,,,1,nBack1Cond.xlsx,111,2,0,0.2,None,1,29,,,,,,,,,,,,,0,0,0,0,0,28,28,28,,,,,,,,,,,,,,,,,,,,,,,,,,,,,,,,,,,,,,,,,542.8618983998895,542.8618983998895,542.8618983998895,542.8618983998895,542.8618983998895,542.8618983998895,542.8618983998895,542.8618983998895,542.8618983998895,542.8618983998895,543.8450833000243,543.8616486999672,544.8450462999754,None,,,,,,,,,,,,,,,,,,,,,,,,,,,,,,001,2022-10-22_16h23.27.811,test9,2022.2.4,59.952721328762756,
,,,,,,,,1,nBack1Cond.xlsx,111,6,0.2,0,None,1,30,,,,,,,,,,,,,0,0,0,0,0,29,29,29,,,,,,,,,,,,,,,,,,,,,,,,,,,,,,,,,,,,,,,,,544.8632771000266,544.8632771000266,544.8632771000266,544.8632771000266,544.8632771000266,544.8632771000266,544.8632771000266,544.8632771000266,544.8632771000266,544.8632771000266,545.8448197999969,545.8780570998788,546.8447729998734,None,,,,,,,,,,,,,,,,,,,,,,,,,,,,,,001,2022-10-22_16h23.27.811,test9,2022.2.4,59.952721328762756,
,,,,,,,,1,nBack1Cond.xlsx,111,4,-0.2,0,None,1,31,,,,,,,,,,,,,0,0,0,0,0,30,30,30,,,,,,,,,,,,,,,,,,,,,,,,,,,,,,,,,,,,,,,,,546.8622125999536,546.8622125999536,546.8622125999536,546.8622125999536,546.8622125999536,546.8622125999536,546.8622125999536,546.8622125999536,546.8622125999536,546.8622125999536,547.8445119999815,547.8778243998531,548.8444226998836,None,,,,,,,,,,,,,,,,,,,,,,,,,,,,,,001,2022-10-22_16h23.27.811,test9,2022.2.4,59.952721328762756,
,,,,,,,,1,nBack1Cond.xlsx,111,4,-0.2,0,space,1,32,,,,,,,,,,,,,0,0,0,0,0,31,31,31,,,,,,,,,,,,,,,,,,,,,,,,,,,,,,,,,,,,,,,,,548.8619978998322,548.8619978998322,548.8619978998322,548.8619978998322,548.8619978998322,548.8619978998322,548.8619978998322,548.8619978998322,548.8619978998322,548.8619978998322,549.8442402998917,549.8775520999916,550.8442257998977,space,0.3678440002258867,,,,,,,,,,,,,,,,,,,,,,,,,,,,,001,2022-10-22_16h23.27.811,test9,2022.2.4,59.952721328762756,
,,,,,,,,1,nBack1Cond.xlsx,111,2,0,0.2,None,1,33,,,,,,,,,,,,,0,0,0,0,0,32,32,32,,,,,,,,,,,,,,,,,,,,,,,,,,,,,,,,,,,,,,,,,550.8609000998549,550.8609000998549,550.8609000998549,550.8609000998549,550.8609000998549,550.8609000998549,550.8609000998549,550.8609000998549,550.8609000998549,550.8609000998549,551.844102999894,551.860821899958,552.8439535999205,None,,,,,,,,,,,,,,,,,,,,,,,,,,,,,,001,2022-10-22_16h23.27.811,test9,2022.2.4,59.952721328762756,
,,,,,,,,1,nBack1Cond.xlsx,111,9,0.2,-0.2,None,1,34,,,,,,,,,,,,,0,0,0,0,0,33,33,33,,,,,,,,,,,,,,,,,,,,,,,,,,,,,,,,,,,,,,,,,552.8605514999945,552.8605514999945,552.8605514999945,552.8605514999945,552.8605514999945,552.8605514999945,552.8605514999945,552.8605514999945,552.8605514999945,552.8605514999945,553.8437409000471,553.8604111999739,554.8436757000163,None,,,,,,,,,,,,,,,,,,,,,,,,,,,,,,001,2022-10-22_16h23.27.811,test9,2022.2.4,59.952721328762756,
,,,,,,,,1,nBack1Cond.xlsx,111,9,0.2,-0.2,space,1,35,,,,,,,,,,,,,0,0,0,0,0,34,34,34,,,,,,,,,,,,,,,,,,,,,,,,,,,,,,,,,,,,,,,,,554.8620050000027,554.8620050000027,554.8620050000027,554.8620050000027,554.8620050000027,554.8620050000027,554.8620050000027,554.8620050000027,554.8620050000027,554.8620050000027,555.843593099853,555.8767693999689,,space,0.6579349001403898,,,,,,,,,,,,,,,,,,,,,,,,,,,,,001,2022-10-22_16h23.27.811,test9,2022.2.4,59.952721328762756,
,,,,,,,,1,nBack1Cond.xlsx,111,3,0.2,0.2,None,1,36,,,,,,,,,,,,,0,0,0,0,0,35,35,35,,,,,,,,,,,,,,,,,,,,,,,,,,,,,,,,,,,,,,,,,556.8658779000398,556.8658779000398,556.8658779000398,556.8658779000398,556.8658779000398,556.8658779000398,556.8658779000398,556.8658779000398,556.8658779000398,556.8658779000398,557.8432938999031,557.8765032000374,558.8431712000165,None,,,,,,,,,,,,,,,,,,,,,,,,,,,,,,001,2022-10-22_16h23.27.811,test9,2022.2.4,59.952721328762756,
,,,,,,,,1,nBack1Cond.xlsx,111,7,-0.2,-0.2,None,1,37,,,,,,,,,,,,,0,0,0,0,0,36,36,36,,,,,,,,,,,,,,,,,,,,,,,,,,,,,,,,,,,,,,,,,558.8606868998613,558.8606868998613,558.8606868998613,558.8606868998613,558.8606868998613,558.8606868998613,558.8606868998613,558.8606868998613,558.8606868998613,558.8606868998613,559.8431023999583,559.8596357998904,560.8427690998651,None,,,,,,,,,,,,,,,,,,,,,,,,,,,,,,001,2022-10-22_16h23.27.811,test9,2022.2.4,59.952721328762756,
,,,,,,,,1,nBack1Cond.xlsx,111,7,-0.2,-0.2,space,1,38,,,,,,,,,,,,,0,0,0,0,0,37,37,37,,,,,,,,,,,,,,,,,,,,,,,,,,,,,,,,,,,,,,,,,560.8611892999616,560.8611892999616,560.8611892999616,560.8611892999616,560.8611892999616,560.8611892999616,560.8611892999616,560.8611892999616,560.8611892999616,560.8611892999616,561.8428447998594,561.8761400999501,562.8426009998657,space,0.7042370000854135,,,,,,,,,,,,,,,,,,,,,,,,,,,,,001,2022-10-22_16h23.27.811,test9,2022.2.4,59.952721328762756,
,,,,,,,,1,nBack1Cond.xlsx,111,7,-0.2,-0.2,space,1,39,,,,,,,,,,,,,0,0,0,0,0,38,38,38,,,,,,,,,,,,,,,,,,,,,,,,,,,,,,,,,,,,,,,,,562.8608144000173,562.8608144000173,562.8608144000173,562.8608144000173,562.8608144000173,562.8608144000173,562.8608144000173,562.8608144000173,562.8608144000173,562.8608144000173,563.8431851998903,563.8597637000494,564.8423303999007,space,0.6295922002755105,,,,,,,,,,,,,,,,,,,,,,,,,,,,,001,2022-10-22_16h23.27.811,test9,2022.2.4,59.952721328762756,
,,,,,,,,1,nBack1Cond.xlsx,111,6,0.2,0,None,1,40,,,,,,,,,,,,,0,0,0,0,0,39,39,39,,,,,,,,,,,,,,,,,,,,,,,,,,,,,,,,,,,,,,,,,564.8590839998797,564.8590839998797,564.8590839998797,564.8590839998797,564.8590839998797,564.8590839998797,564.8590839998797,564.8590839998797,564.8590839998797,564.8590839998797,565.8423311999068,565.8589061999228,566.842135899933,None,,,,,,,,,,,,,,,,,,,,,,,,,,,,,,001,2022-10-22_16h23.27.811,test9,2022.2.4,59.952721328762756,
,,,,,,,,1,nBack1Cond.xlsx,111,6,0.2,0,space,1,41,,,,,,,,,,,,,0,0,0,0,0,40,40,40,,,,,,,,,,,,,,,,,,,,,,,,,,,,,,,,,,,,,,,,,566.8599950999487,566.8599950999487,566.8599950999487,566.8599950999487,566.8599950999487,566.8599950999487,566.8599950999487,566.8599950999487,566.8599950999487,566.8599950999487,567.8421145998873,567.8754855999723,568.841731299879,space,0.5835265000350773,,,,,,,,,,,,,,,,,,,,,,,,,,,,,001,2022-10-22_16h23.27.811,test9,2022.2.4,59.952721328762756,
,,,,,,,,1,nBack1Cond.xlsx,111,1,-0.2,0.2,None,1,42,,,,,,,,,,,,,0,0,0,0,0,41,41,41,,,,,,,,,,,,,,,,,,,,,,,,,,,,,,,,,,,,,,,,,568.8598149998579,568.8598149998579,568.8598149998579,568.8598149998579,568.8598149998579,568.8598149998579,568.8598149998579,568.8598149998579,568.8598149998579,568.8598149998579,569.8420231000055,569.8751083000097,570.8414855999872,None,,,,,,,,,,,,,,,,,,,,,,,,,,,,,,001,2022-10-22_16h23.27.811,test9,2022.2.4,59.952721328762756,
,,,,,,,,1,nBack1Cond.xlsx,111,5,0,0,None,1,43,,,,,,,,,,,,,0,0,0,0,0,42,42,42,,,,,,,,,,,,,,,,,,,,,,,,,,,,,,,,,,,,,,,,,570.8582746998873,570.8582746998873,570.8582746998873,570.8582746998873,570.8582746998873,570.8582746998873,570.8582746998873,570.8582746998873,570.8582746998873,570.8582746998873,571.8415486000013,571.8580682999454,572.8413249000441,None,,,,,,,,,,,,,,,,,,,,,,,,,,,,,,001,2022-10-22_16h23.27.811,test9,2022.2.4,59.952721328762756,
,,,,,,,,1,nBack1Cond.xlsx,111,3,0.2,0.2,None,1,44,,,,,,,,,,,,,0,0,0,0,0,43,43,43,,,,,,,,,,,,,,,,,,,,,,,,,,,,,,,,,,,,,,,,,572.8594767998438,572.8594767998438,572.8594767998438,572.8594767998438,572.8594767998438,572.8594767998438,572.8594767998438,572.8594767998438,572.8594767998438,572.8594767998438,573.8411697999109,573.8744067000225,574.8410893999971,None,,,,,,,,,,,,,,,,,,,,,,,,,,,,,,001,2022-10-22_16h23.27.811,test9,2022.2.4,59.952721328762756,
,,,,,,,,1,nBack1Cond.xlsx,111,1,-0.2,0.2,None,1,45,,,,,,,,,,,,,0,0,0,0,0,44,44,44,,,,,,,,,,,,,,,,,,,,,,,,,,,,,,,,,,,,,,,,,574.8593747999985,574.8593747999985,574.8593747999985,574.8593747999985,574.8593747999985,574.8593747999985,574.8593747999985,574.8593747999985,574.8593747999985,574.8593747999985,575.8409039999824,575.8742295999546,576.8408524000552,None,,,,,,,,,,,,,,,,,,,,,,,,,,,,,,001,2022-10-22_16h23.27.811,test9,2022.2.4,59.952721328762756,
,,,,,,,,1,nBack1Cond.xlsx,111,7,-0.2,-0.2,None,1,46,,,,,,,,,,,,,0,0,0,0,0,45,45,45,,,,,,,,,,,,,,,,,,,,,,,,,,,,,,,,,,,,,,,,,576.8589107999578,576.8589107999578,576.8589107999578,576.8589107999578,576.8589107999578,576.8589107999578,576.8589107999578,576.8589107999578,576.8589107999578,576.8589107999578,577.8406576998532,577.8740908999462,578.8404979999177,None,,,,,,,,,,,,,,,,,,,,,,,,,,,,,,001,2022-10-22_16h23.27.811,test9,2022.2.4,59.952721328762756,
,,,,,,,,1,nBack1Cond.xlsx,111,3,0.2,0.2,None,1,47,,,,,,,,,,,,,0,0,0,0,0,46,46,46,,,,,,,,,,,,,,,,,,,,,,,,,,,,,,,,,,,,,,,,,578.8771527998615,578.8771527998615,578.8771527998615,578.8771527998615,578.8771527998615,578.8771527998615,578.8771527998615,578.8771527998615,578.8771527998615,578.8771527998615,579.840847699903,579.8902954000514,580.8401680998504,None,,,,,,,,,,,,,,,,,,,,,,,,,,,,,,001,2022-10-22_16h23.27.811,test9,2022.2.4,59.952721328762756,
,,,,,,,,1,nBack1Cond.xlsx,111,3,0.2,0.2,space,1,48,,,,,,,,,,,,,0,0,0,0,0,47,47,47,,,,,,,,,,,,,,,,,,,,,,,,,,,,,,,,,,,,,,,,,580.8748830999248,580.8748830999248,580.8748830999248,580.8748830999248,580.8748830999248,580.8748830999248,580.8748830999248,580.8748830999248,580.8748830999248,580.8748830999248,581.8410205999389,581.890258200001,582.8398730000481,space,0.4645609001163393,,,,,,,,,,,,,,,,,,,,,,,,,,,,,001,2022-10-22_16h23.27.811,test9,2022.2.4,59.952721328762756,
,,,,,,,,1,nBack1Cond.xlsx,111,9,0.2,-0.2,None,1,49,,,,,,,,,,,,,0,0,0,0,0,48,48,48,,,,,,,,,,,,,,,,,,,,,,,,,,,,,,,,,,,,,,,,,582.8734179998282,582.8734179998282,582.8734179998282,582.8734179998282,582.8734179998282,582.8734179998282,582.8734179998282,582.8734179998282,582.8734179998282,582.8734179998282,583.8568338998593,583.8731114000548,584.8564045999665,None,,,,,,,,,,,,,,,,,,,,,,,,,,,,,,001,2022-10-22_16h23.27.811,test9,2022.2.4,59.952721328762756,
,,,,,,,,1,nBack1Cond.xlsx,111,7,-0.2,-0.2,None,1,50,,,,,,,,,,,,,0,0,0,0,0,49,49,49,,,,,,,,,,,,,,,,,,,,,,,,,,,,,,,,,,,,,,,,,584.8734789998271,584.8734789998271,584.8734789998271,584.8734789998271,584.8734789998271,584.8734789998271,584.8734789998271,584.8734789998271,584.8734789998271,584.8734789998271,585.8562467000447,585.8729826000053,586.8560925000347,None,,,,,,,,,,,,,,,,,,,,,,,,,,,,,,001,2022-10-22_16h23.27.811,test9,2022.2.4,59.952721328762756,
,,,,,,,,1,nBack1Cond.xlsx,111,5,0,0,None,1,51,,,,,,,,,,,,,0,0,0,0,0,50,50,50,,,,,,,,,,,,,,,,,,,,,,,,,,,,,,,,,,,,,,,,,586.8729184998665,586.8729184998665,586.8729184998665,586.8729184998665,586.8729184998665,586.8729184998665,586.8729184998665,586.8729184998665,586.8729184998665,586.8729184998665,587.8560796000529,587.8726460998878,588.8559305998497,None,,,,,,,,,,,,,,,,,,,,,,,,,,,,,,001,2022-10-22_16h23.27.811,test9,2022.2.4,59.952721328762756,
,,,,,,,,1,nBack1Cond.xlsx,111,8,0,-0.2,None,1,52,,,,,,,,,,,,,0,0,0,0,0,51,51,51,,,,,,,,,,,,,,,,,,,,,,,,,,,,,,,,,,,,,,,,,588.8735725998413,588.8735725998413,588.8735725998413,588.8735725998413,588.8735725998413,588.8735725998413,588.8735725998413,588.8735725998413,588.8735725998413,588.8735725998413,589.8558046000544,589.8891761999112,590.8556702998467,None,,,,,,,,,,,,,,,,,,,,,,,,,,,,,,001,2022-10-22_16h23.27.811,test9,2022.2.4,59.952721328762756,
,,,,,,,,1,nBack1Cond.xlsx,111,8,0,-0.2,space,1,53,,,,,,,,,,,,,0,0,0,0,0,52,52,52,,,,,,,,,,,,,,,,,,,,,,,,,,,,,,,,,,,,,,,,,590.873939299956,590.873939299956,590.873939299956,590.873939299956,590.873939299956,590.873939299956,590.873939299956,590.873939299956,590.873939299956,590.873939299956,591.8556123999879,591.888779599918,592.8553718999028,space,0.99075230024755,,,,,,,,,,,,,,,,,,,,,,,,,,,,,001,2022-10-22_16h23.27.811,test9,2022.2.4,59.952721328762756,
,,,,,,,,1,nBack1Cond.xlsx,111,7,-0.2,-0.2,None,1,54,,,,,,,,,,,,,0,0,0,0,0,53,53,53,,,,,,,,,,,,,,,,,,,,,,,,,,,,,,,,,,,,,,,,,592.8736372999847,592.8736372999847,592.8736372999847,592.8736372999847,592.8736372999847,592.8736372999847,592.8736372999847,592.8736372999847,592.8736372999847,592.8736372999847,593.8552620999981,593.8884904999286,594.85503039998,None,,,,,,,,,,,,,,,,,,,,,,,,,,,,,,001,2022-10-22_16h23.27.811,test9,2022.2.4,59.952721328762756,
,,,,,,,,1,nBack1Cond.xlsx,111,4,-0.2,0,None,1,55,,,,,,,,,,,,,0,0,0,0,0,54,54,54,,,,,,,,,,,,,,,,,,,,,,,,,,,,,,,,,,,,,,,,,594.8739982000552,594.8739982000552,594.8739982000552,594.8739982000552,594.8739982000552,594.8739982000552,594.8739982000552,594.8739982000552,594.8739982000552,594.8739982000552,595.855031499872,595.8882750000339,596.8548371999059,None,,,,,,,,,,,,,,,,,,,,,,,,,,,,,,001,2022-10-22_16h23.27.811,test9,2022.2.4,59.952721328762756,
,,,,,,,,1,nBack1Cond.xlsx,111,5,0,0,None,1,56,,,,,,,,,,,,,0,0,0,0,0,55,55,55,,,,,,,,,,,,,,,,,,,,,,,,,,,,,,,,,,,,,,,,,596.8724642000161,596.8724642000161,596.8724642000161,596.8724642000161,596.8724642000161,596.8724642000161,596.8724642000161,596.8724642000161,596.8724642000161,596.8724642000161,597.854794099927,597.8879867000505,598.854580800049,None,,,,,,,,,,,,,,,,,,,,,,,,,,,,,,001,2022-10-22_16h23.27.811,test9,2022.2.4,59.952721328762756,
,,,,,,,,1,nBack1Cond.xlsx,111,5,0,0,space,1,57,,,,,,,,,,,,,0,0,0,0,0,56,56,56,,,,,,,,,,,,,,,,,,,,,,,,,,,,,,,,,,,,,,,,,598.8725662999786,598.8725662999786,598.8725662999786,598.8725662999786,598.8725662999786,598.8725662999786,598.8725662999786,598.8725662999786,598.8725662999786,598.8725662999786,599.8545107999817,599.8877224999014,600.8544077998959,space,0.5804892000742257,,,,,,,,,,,,,,,,,,,,,,,,,,,,,001,2022-10-22_16h23.27.811,test9,2022.2.4,59.952721328762756,
,,,,,,,,1,nBack1Cond.xlsx,111,2,0,0.2,None,1,58,,,,,,,,,,,,,0,0,0,0,0,57,57,57,,,,,,,,,,,,,,,,,,,,,,,,,,,,,,,,,,,,,,,,,600.8722085999325,600.8722085999325,600.8722085999325,600.8722085999325,600.8722085999325,600.8722085999325,600.8722085999325,600.8722085999325,600.8722085999325,600.8722085999325,601.8541748998687,601.8874460000079,602.8540779999457,None,,,,,,,,,,,,,,,,,,,,,,,,,,,,,,001,2022-10-22_16h23.27.811,test9,2022.2.4,59.952721328762756,
,,,,,,,,1,nBack1Cond.xlsx,111,2,0,0.2,space,1,59,,,,,,,,,,,,,0,0,0,0,0,58,58,58,,,,,,,,,,,,,,,,,,,,,,,,,,,,,,,,,,,,,,,,,602.8729743000586,602.8729743000586,602.8729743000586,602.8729743000586,602.8729743000586,602.8729743000586,602.8729743000586,602.8729743000586,602.8729743000586,602.8729743000586,603.8539044999052,603.8872497000266,604.8539372999221,space,0.44540590001270175,,,,,,,,,,,,,,,,,,,,,,,,,,,,,001,2022-10-22_16h23.27.811,test9,2022.2.4,59.952721328762756,
,,,,,,,,1,nBack1Cond.xlsx,111,6,0.2,0,None,1,60,,,,,,,,,,,,,0,0,0,0,0,59,59,59,,,,,,,,,,,,,,,,,,,,,,,,,,,,,,,,,,,,,,,,,604.8734156999271,604.8734156999271,604.8734156999271,604.8734156999271,604.8734156999271,604.8734156999271,604.8734156999271,604.8734156999271,604.8734156999271,604.8734156999271,605.8537923998665,605.8868767998647,606.8535282998346,None,,,,,,,,,,,,,,,,,,,,,,,,,,,,,,001,2022-10-22_16h23.27.811,test9,2022.2.4,59.952721328762756,
,,,,,,,,1,nBack1Cond.xlsx,111,2,0,0.2,None,1,61,,,,,,,,,,,,,0,0,0,0,0,60,60,60,,,,,,,,,,,,,,,,,,,,,,,,,,,,,,,,,,,,,,,,,606.8717551999725,606.8717551999725,606.8717551999725,606.8717551999725,606.8717551999725,606.8717551999725,606.8717551999725,606.8717551999725,606.8717551999725,606.8717551999725,607.853459399892,607.8867345999461,608.8534401999786,None,,,,,,,,,,,,,,,,,,,,,,,,,,,,,,001,2022-10-22_16h23.27.811,test9,2022.2.4,59.952721328762756,
,,,,,,,,1,nBack1Cond.xlsx,111,2,0,0.2,space,1,62,,,,,,,,,,,,,0,0,0,0,0,61,61,61,,,,,,,,,,,,,,,,,,,,,,,,,,,,,,,,,,,,,,,,,608.8700009998865,608.8700009998865,608.8700009998865,608.8700009998865,608.8700009998865,608.8700009998865,608.8700009998865,608.8700009998865,608.8700009998865,608.8700009998865,609.8532330999151,609.869859599974,610.8530331999063,space,0.337496500229463,,,,,,,,,,,,,,,,,,,,,,,,,,,,,001,2022-10-22_16h23.27.811,test9,2022.2.4,59.952721328762756,
,,,,,,,,1,nBack1Cond.xlsx,111,5,0,0,None,1,63,,,,,,,,,,,,,0,0,0,0,0,62,62,62,,,,,,,,,,,,,,,,,,,,,,,,,,,,,,,,,,,,,,,,,610.8714417999145,610.8714417999145,610.8714417999145,610.8714417999145,610.8714417999145,610.8714417999145,610.8714417999145,610.8714417999145,610.8714417999145,610.8714417999145,611.8529413000215,611.8861876998562,612.853472399991,None,,,,,,,,,,,,,,,,,,,,,,,,,,,,,,001,2022-10-22_16h23.27.811,test9,2022.2.4,59.952721328762756,
,,,,,,,,1,nBack1Cond.xlsx,111,5,0,0,space,1,64,,,,,,,,,,,,,0,0,0,0,0,63,63,63,,,,,,,,,,,,,,,,,,,,,,,,,,,,,,,,,,,,,,,,,612.8717352999374,612.8717352999374,612.8717352999374,612.8717352999374,612.8717352999374,612.8717352999374,612.8717352999374,612.8717352999374,612.8717352999374,612.8717352999374,613.85261169984,613.8860199998599,,space,0.4303464002441615,,,,,,,,,,,,,,,,,,,,,,,,,,,,,001,2022-10-22_16h23.27.811,test9,2022.2.4,59.952721328762756,
,,,,,,,,1,nBack1Cond.xlsx,111,4,-0.2,0,None,1,65,,,,,,,,,,,,,0,0,0,0,0,64,64,64,,,,,,,,,,,,,,,,,,,,,,,,,,,,,,,,,,,,,,,,,614.8618588999379,614.8618588999379,614.8618588999379,614.8618588999379,614.8618588999379,614.8618588999379,614.8618588999379,614.8618588999379,614.8618588999379,614.8618588999379,615.8523611999117,615.8690369999968,616.8522927998565,None,,,,,,,,,,,,,,,,,,,,,,,,,,,,,,001,2022-10-22_16h23.27.811,test9,2022.2.4,59.952721328762756,
,,,,,,,,1,nBack1Cond.xlsx,111,7,-0.2,-0.2,None,1,66,,,,,,,,,,,,,0,0,0,0,0,65,65,65,,,,,,,,,,,,,,,,,,,,,,,,,,,,,,,,,,,,,,,,,616.870072199963,616.870072199963,616.870072199963,616.870072199963,616.870072199963,616.870072199963,616.870072199963,616.870072199963,616.870072199963,616.870072199963,617.8523687999696,617.8968405998312,618.8518409999087,None,,,,,,,,,,,,,,,,,,,,,,,,,,,,,,001,2022-10-22_16h23.27.811,test9,2022.2.4,59.952721328762756,
,,,,,,,,1,nBack1Cond.xlsx,111,8,0,-0.2,None,1,67,,,,,,,,,,,,,0,0,0,0,0,66,66,66,,,,,,,,,,,,,,,,,,,,,,,,,,,,,,,,,,,,,,,,,618.869127499871,618.869127499871,618.869127499871,618.869127499871,618.869127499871,618.869127499871,618.869127499871,618.869127499871,618.869127499871,618.869127499871,619.8524005999789,619.8684719000012,620.8516120000277,None,,,,,,,,,,,,,,,,,,,,,,,,,,,,,,001,2022-10-22_16h23.27.811,test9,2022.2.4,59.952721328762756,
,,,,,,,,1,nBack1Cond.xlsx,111,8,0,-0.2,space,1,68,,,,,,,,,,,,,0,0,0,0,0,67,67,67,,,,,,,,,,,,,,,,,,,,,,,,,,,,,,,,,,,,,,,,,620.8682887998875,620.8682887998875,620.8682887998875,620.8682887998875,620.8682887998875,620.8682887998875,620.8682887998875,620.8682887998875,620.8682887998875,620.8682887998875,621.8524936998729,621.8682184999343,,space,0.5454950002022088,,,,,,,,,,,,,,,,,,,,,,,,,,,,,001,2022-10-22_16h23.27.811,test9,2022.2.4,59.952721328762756,
,,,,,,,,1,nBack1Cond.xlsx,111,5,0,0,None,1,69,,,,,,,,,,,,,0,0,0,0,0,68,68,68,,,,,,,,,,,,,,,,,,,,,,,,,,,,,,,,,,,,,,,,,622.8681715999264,622.8681715999264,622.8681715999264,622.8681715999264,622.8681715999264,622.8681715999264,622.8681715999264,622.8681715999264,622.8681715999264,622.8681715999264,623.8512828999665,623.8679209998809,624.851185800042,None,,,,,,,,,,,,,,,,,,,,,,,,,,,,,,001,2022-10-22_16h23.27.811,test9,2022.2.4,59.952721328762756,
,,,,,,,,1,nBack1Cond.xlsx,111,7,-0.2,-0.2,None,1,70,,,,,,,,,,,,,0,0,0,0,0,69,69,69,,,,,,,,,,,,,,,,,,,,,,,,,,,,,,,,,,,,,,,,,624.8699964999687,624.8699964999687,624.8699964999687,624.8699964999687,624.8699964999687,624.8699964999687,624.8699964999687,624.8699964999687,624.8699964999687,624.8699964999687,625.8511453999672,625.8843930999283,626.8509593999479,None,,,,,,,,,,,,,,,,,,,,,,,,,,,,,,001,2022-10-22_16h23.27.811,test9,2022.2.4,59.952721328762756,
,,,,,,,,1,nBack1Cond.xlsx,111,9,0.2,-0.2,None,1,71,,,,,,,,,,,,,0,0,0,0,0,70,70,70,,,,,,,,,,,,,,,,,,,,,,,,,,,,,,,,,,,,,,,,,626.8677612999454,626.8677612999454,626.8677612999454,626.8677612999454,626.8677612999454,626.8677612999454,626.8677612999454,626.8677612999454,626.8677612999454,626.8677612999454,627.8512299999129,627.867743599927,628.8507916999515,None,,,,,,,,,,,,,,,,,,,,,,,,,,,,,,001,2022-10-22_16h23.27.811,test9,2022.2.4,59.952721328762756,
,,,,,,,,1,nBack1Cond.xlsx,111,3,0.2,0.2,None,1,72,,,,,,,,,,,,,0,0,0,0,0,71,71,71,,,,,,,,,,,,,,,,,,,,,,,,,,,,,,,,,,,,,,,,,628.867405399913,628.867405399913,628.867405399913,628.867405399913,628.867405399913,628.867405399913,628.867405399913,628.867405399913,628.867405399913,628.867405399913,629.8513712999411,629.8676819000393,,None,,,,,,,,,,,,,,,,,,,,,,,,,,,,,,001,2022-10-22_16h23.27.811,test9,2022.2.4,59.952721328762756,
,,,,,,,,1,nBack1Cond.xlsx,111,3,0.2,0.2,space,1,73,,,,,,,,,,,,,0,0,0,0,0,72,72,72,,,,,,,,,,,,,,,,,,,,,,,,,,,,,,,,,,,,,,,,,630.872310699895,630.872310699895,630.872310699895,630.872310699895,630.872310699895,630.872310699895,630.872310699895,630.872310699895,630.872310699895,630.872310699895,631.8503308999352,631.8837649999186,632.8539160999935,space,0.9392416002228856,,,,,,,,,,,,,,,,,,,,,,,,,,,,,001,2022-10-22_16h23.27.811,test9,2022.2.4,59.952721328762756,
,,,,,,,,1,nBack1Cond.xlsx,111,7,-0.2,-0.2,None,1,74,,,,,,,,,,,,,0,0,0,0,0,73,73,73,,,,,,,,,,,,,,,,,,,,,,,,,,,,,,,,,,,,,,,,,632.8700272999704,632.8700272999704,632.8700272999704,632.8700272999704,632.8700272999704,632.8700272999704,632.8700272999704,632.8700272999704,632.8700272999704,632.8700272999704,633.8500903998502,633.883425100008,634.8499669998419,None,,,,,,,,,,,,,,,,,,,,,,,,,,,,,,001,2022-10-22_16h23.27.811,test9,2022.2.4,59.952721328762756,
,,,,,,,,1,nBack1Cond.xlsx,111,1,-0.2,0.2,None,1,75,,,,,,,,,,,,,0,0,0,0,0,74,74,74,,,,,,,,,,,,,,,,,,,,,,,,,,,,,,,,,,,,,,,,,634.8677393000107,634.8677393000107,634.8677393000107,634.8677393000107,634.8677393000107,634.8677393000107,634.8677393000107,634.8677393000107,634.8677393000107,634.8677393000107,635.8498498999979,635.8830497998279,636.8498445998412,None,,,,,,,,,,,,,,,,,,,,,,,,,,,,,,001,2022-10-22_16h23.27.811,test9,2022.2.4,59.952721328762756,
,,,,,,,,1,nBack1Cond.xlsx,111,3,0.2,0.2,None,1,76,,,,,,,,,,,,,0,0,0,0,0,75,75,75,,,,,,,,,,,,,,,,,,,,,,,,,,,,,,,,,,,,,,,,,636.8663385000546,636.8663385000546,636.8663385000546,636.8663385000546,636.8663385000546,636.8663385000546,636.8663385000546,636.8663385000546,636.8663385000546,636.8663385000546,637.8496302999556,637.8663236999419,638.8493772998918,None,,,,,,,,,,,,,,,,,,,,,,,,,,,,,,001,2022-10-22_16h23.27.811,test9,2022.2.4,59.952721328762756,
,,,,,,,,1,nBack1Cond.xlsx,111,5,0,0,None,1,77,,,,,,,,,,,,,0,0,0,0,0,76,76,76,,,,,,,,,,,,,,,,,,,,,,,,,,,,,,,,,,,,,,,,,638.8669552998617,638.8669552998617,638.8669552998617,638.8669552998617,638.8669552998617,638.8669552998617,638.8669552998617,638.8669552998617,638.8669552998617,638.8669552998617,639.8505140999332,639.8664897999261,,None,,,,,,,,,,,,,,,,,,,,,,,,,,,,,,001,2022-10-22_16h23.27.811,test9,2022.2.4,59.952721328762756,
,,,,,,,,1,nBack1Cond.xlsx,111,1,-0.2,0.2,None,1,78,,,,,,,,,,,,,0,0,0,0,0,77,77,77,,,,,,,,,,,,,,,,,,,,,,,,,,,,,,,,,,,,,,,,,640.8666909998283,640.8666909998283,640.8666909998283,640.8666909998283,640.8666909998283,640.8666909998283,640.8666909998283,640.8666909998283,640.8666909998283,640.8666909998283,641.8497468999121,641.8657092000358,642.8488004999235,None,,,,,,,,,,,,,,,,,,,,,,,,,,,,,,001,2022-10-22_16h23.27.811,test9,2022.2.4,59.952721328762756,
,,,,,,,,1,nBack1Cond.xlsx,111,6,0.2,0,None,1,79,,,,,,,,,,,,,0,0,0,0,0,78,78,78,,,,,,,,,,,,,,,,,,,,,,,,,,,,,,,,,,,,,,,,,642.8662325998303,642.8662325998303,642.8662325998303,642.8662325998303,642.8662325998303,642.8662325998303,642.8662325998303,642.8662325998303,642.8662325998303,642.8662325998303,643.8488874998875,643.865402400028,644.848688099999,None,,,,,,,,,,,,,,,,,,,,,,,,,,,,,,001,2022-10-22_16h23.27.811,test9,2022.2.4,59.952721328762756,
,,,,,,,,1,nBack1Cond.xlsx,111,6,0.2,0,space,1,80,,,,,,,,,,,,,0,0,0,0,0,79,79,79,,,,,,,,,,,,,,,,,,,,,,,,,,,,,,,,,,,,,,,,,644.8664218999911,644.8664218999911,644.8664218999911,644.8664218999911,644.8664218999911,644.8664218999911,644.8664218999911,644.8664218999911,644.8664218999911,644.8664218999911,645.8487197000068,645.8817360999528,646.8483247000258,space,0.38622250012122095,,,,,,,,,,,,,,,,,,,,,,,,,,,,,001,2022-10-22_16h23.27.811,test9,2022.2.4,59.952721328762756,
,,,,,,,,1,nBack1Cond.xlsx,111,7,-0.2,-0.2,None,1,81,,,,,,,,,,,,,0,0,0,0,0,80,80,80,,,,,,,,,,,,,,,,,,,,,,,,,,,,,,,,,,,,,,,,,646.867228299845,646.867228299845,646.867228299845,646.867228299845,646.867228299845,646.867228299845,646.867228299845,646.867228299845,646.867228299845,646.867228299845,647.8482224999461,647.8815603000112,648.8480294998735,None,,,,,,,,,,,,,,,,,,,,,,,,,,,,,,001,2022-10-22_16h23.27.811,test9,2022.2.4,59.952721328762756,
,,,,,,,,1,nBack1Cond.xlsx,111,7,-0.2,-0.2,space,1,82,,,,,,,,,,,,,0,0,0,0,0,81,81,81,,,,,,,,,,,,,,,,,,,,,,,,,,,,,,,,,,,,,,,,,648.8648705999367,648.8648705999367,648.8648705999367,648.8648705999367,648.8648705999367,648.8648705999367,648.8648705999367,648.8648705999367,648.8648705999367,648.8648705999367,649.8479350998532,649.864637899911,650.847824400058,space,0.6975428001023829,,,,,,,,,,,,,,,,,,,,,,,,,,,,,001,2022-10-22_16h23.27.811,test9,2022.2.4,59.952721328762756,
,,,,,,,,1,nBack1Cond.xlsx,111,7,-0.2,-0.2,space,1,83,,,,,,,,,,,,,0,0,0,0,0,82,82,82,,,,,,,,,,,,,,,,,,,,,,,,,,,,,,,,,,,,,,,,,650.8673139000311,650.8673139000311,650.8673139000311,650.8673139000311,650.8673139000311,650.8673139000311,650.8673139000311,650.8673139000311,650.8673139000311,650.8673139000311,651.8484765999019,651.8810192998499,652.8476627999917,space,0.5524079001042992,,,,,,,,,,,,,,,,,,,,,,,,,,,,,001,2022-10-22_16h23.27.811,test9,2022.2.4,59.952721328762756,
,,,,,,,,1,nBack1Cond.xlsx,111,3,0.2,0.2,None,1,84,,,,,,,,,,,,,0,0,0,0,0,83,83,83,,,,,,,,,,,,,,,,,,,,,,,,,,,,,,,,,,,,,,,,,652.8643926000223,652.8643926000223,652.8643926000223,652.8643926000223,652.8643926000223,652.8643926000223,652.8643926000223,652.8643926000223,652.8643926000223,652.8643926000223,653.8474125999492,653.8643519999459,654.8473634999245,None,,,,,,,,,,,,,,,,,,,,,,,,,,,,,,001,2022-10-22_16h23.27.811,test9,2022.2.4,59.952721328762756,
,,,,,,,,1,nBack1Cond.xlsx,111,9,0.2,-0.2,None,1,85,,,,,,,,,,,,,0,0,0,0,0,84,84,84,,,,,,,,,,,,,,,,,,,,,,,,,,,,,,,,,,,,,,,,,654.8640359998681,654.8640359998681,654.8640359998681,654.8640359998681,654.8640359998681,654.8640359998681,654.8640359998681,654.8640359998681,654.8640359998681,654.8640359998681,655.8472955999896,655.8640212998725,656.8470588999335,None,,,,,,,,,,,,,,,,,,,,,,,,,,,,,,001,2022-10-22_16h23.27.811,test9,2022.2.4,59.952721328762756,
,,,,,,,,1,nBack1Cond.xlsx,111,9,0.2,-0.2,space,1,86,,,,,,,,,,,,,0,0,0,0,0,85,85,85,,,,,,,,,,,,,,,,,,,,,,,,,,,,,,,,,,,,,,,,,656.8642661999911,656.8642661999911,656.8642661999911,656.8642661999911,656.8642661999911,656.8642661999911,656.8642661999911,656.8642661999911,656.8642661999911,656.8642661999911,657.8472486999817,657.8635635999963,658.8468428000342,space,0.5771006001159549,,,,,,,,,,,,,,,,,,,,,,,,,,,,,001,2022-10-22_16h23.27.811,test9,2022.2.4,59.952721328762756,
,,,,,,,,1,nBack1Cond.xlsx,111,2,0,0.2,None,1,87,,,,,,,,,,,,,0,0,0,0,0,86,86,86,,,,,,,,,,,,,,,,,,,,,,,,,,,,,,,,,,,,,,,,,658.8649871998932,658.8649871998932,658.8649871998932,658.8649871998932,658.8649871998932,658.8649871998932,658.8649871998932,658.8649871998932,658.8649871998932,658.8649871998932,659.8486738000065,659.8649879998993,,None,,,,,,,,,,,,,,,,,,,,,,,,,,,,,,001,2022-10-22_16h23.27.811,test9,2022.2.4,59.952721328762756,
,,,,,,,,1,nBack1Cond.xlsx,111,4,-0.2,0,None,1,88,,,,,,,,,,,,,0,0,0,0,0,87,87,87,,,,,,,,,,,,,,,,,,,,,,,,,,,,,,,,,,,,,,,,,660.8637385000475,660.8637385000475,660.8637385000475,660.8637385000475,660.8637385000475,660.8637385000475,660.8637385000475,660.8637385000475,660.8637385000475,660.8637385000475,661.8464854999911,661.8631090000272,662.8462797999382,None,,,,,,,,,,,,,,,,,,,,,,,,,,,,,,001,2022-10-22_16h23.27.811,test9,2022.2.4,59.952721328762756,
,,,,,,,,1,nBack1Cond.xlsx,111,4,-0.2,0,space,1,89,,,,,,,,,,,,,0,0,0,0,0,88,88,88,,,,,,,,,,,,,,,,,,,,,,,,,,,,,,,,,,,,,,,,,662.8629371998832,662.8629371998832,662.8629371998832,662.8629371998832,662.8629371998832,662.8629371998832,662.8629371998832,662.8629371998832,662.8629371998832,662.8629371998832,663.8460844999645,663.862784900004,664.8461579000577,space,0.2719290000386536,,,,,,,,,,,,,,,,,,,,,,,,,,,,,001,2022-10-22_16h23.27.811,test9,2022.2.4,59.952721328762756,
,,,,,,,,1,nBack1Cond.xlsx,111,6,0.2,0,None,1,90,,,,,,,,,,,,,0,0,0,0,0,89,89,89,,,,,,,,,,,,,,,,,,,,,,,,,,,,,,,,,,,,,,,,,664.8633844000287,664.8633844000287,664.8633844000287,664.8633844000287,664.8633844000287,664.8633844000287,664.8633844000287,664.8633844000287,664.8633844000287,664.8633844000287,665.845982800005,665.8626250999514,666.8457954998594,None,,,,,,,,,,,,,,,,,,,,,,,,,,,,,,001,2022-10-22_16h23.27.811,test9,2022.2.4,59.952721328762756,
,,,,,,,,1,nBack1Cond.xlsx,111,2,0,0.2,None,1,91,,,,,,,,,,,,,0,0,0,0,0,90,90,90,,,,,,,,,,,,,,,,,,,,,,,,,,,,,,,,,,,,,,,,,666.8624713998288,666.8624713998288,666.8624713998288,666.8624713998288,666.8624713998288,666.8624713998288,666.8624713998288,666.8624713998288,666.8624713998288,666.8624713998288,667.8455890999176,667.8623907999136,668.8455596000422,None,,,,,,,,,,,,,,,,,,,,,,,,,,,,,,001,2022-10-22_16h23.27.811,test9,2022.2.4,59.952721328762756,
,,,,,,,,1,nBack1Cond.xlsx,111,7,-0.2,-0.2,None,1,92,,,,,,,,,,,,,0,0,0,0,0,91,91,91,,,,,,,,,,,,,,,,,,,,,,,,,,,,,,,,,,,,,,,,,668.8630613998976,668.8630613998976,668.8630613998976,668.8630613998976,668.8630613998976,668.8630613998976,668.8630613998976,668.8630613998976,668.8630613998976,668.8630613998976,669.8454619999975,669.8619729999918,670.8453573000152,None,,,,,,,,,,,,,,,,,,,,,,,,,,,,,,001,2022-10-22_16h23.27.811,test9,2022.2.4,59.952721328762756,
,,,,,,,,1,nBack1Cond.xlsx,111,7,-0.2,-0.2,space,1,93,,,,,,,,,,,,,0,0,0,0,0,92,92,92,,,,,,,,,,,,,,,,,,,,,,,,,,,,,,,,,,,,,,,,,670.8632612999063,670.8632612999063,670.8632612999063,670.8632612999063,670.8632612999063,670.8632612999063,670.8632612999063,670.8632612999063,670.8632612999063,670.8632612999063,671.8451337998267,671.8784488998353,672.8449925999157,space,0.6700743001420051,,,,,,,,,,,,,,,,,,,,,,,,,,,,,001,2022-10-22_16h23.27.811,test9,2022.2.4,59.952721328762756,
,,,,,,,,1,nBack1Cond.xlsx,111,1,-0.2,0.2,None,1,94,,,,,,,,,,,,,0,0,0,0,0,93,93,93,,,,,,,,,,,,,,,,,,,,,,,,,,,,,,,,,,,,,,,,,672.8616595999338,672.8616595999338,672.8616595999338,672.8616595999338,672.8616595999338,672.8616595999338,672.8616595999338,672.8616595999338,672.8616595999338,672.8616595999338,673.8449796000496,673.8614425999112,674.8447862998582,space,0.35373029997572303,,,,,,,,,,,,,,,,,,,,,,,,,,,,,001,2022-10-22_16h23.27.811,test9,2022.2.4,59.952721328762756,
,,,,,,,,1,nBack1Cond.xlsx,111,2,0,0.2,None,1,95,,,,,,,,,,,,,0,0,0,0,0,94,94,94,,,,,,,,,,,,,,,,,,,,,,,,,,,,,,,,,,,,,,,,,674.8628721998539,674.8628721998539,674.8628721998539,674.8628721998539,674.8628721998539,674.8628721998539,674.8628721998539,674.8628721998539,674.8628721998539,674.8628721998539,675.8446147998329,675.8778721999843,676.8444906000514,None,,,,,,,,,,,,,,,,,,,,,,,,,,,,,,001,2022-10-22_16h23.27.811,test9,2022.2.4,59.952721328762756,
,,,,,,,,1,nBack1Cond.xlsx,111,3,0.2,0.2,None,1,96,,,,,,,,,,,,,0,0,0,0,0,95,95,95,,,,,,,,,,,,,,,,,,,,,,,,,,,,,,,,,,,,,,,,,676.8612464000471,676.8612464000471,676.8612464000471,676.8612464000471,676.8612464000471,676.8612464000471,676.8612464000471,676.8612464000471,676.8612464000471,676.8612464000471,677.8443690000568,677.8609348000027,678.8442118999083,None,,,,,,,,,,,,,,,,,,,,,,,,,,,,,,001,2022-10-22_16h23.27.811,test9,2022.2.4,59.952721328762756,
,,,,,,,,1,nBack1Cond.xlsx,111,1,-0.2,0.2,None,1,97,,,,,,,,,,,,,0,0,0,0,0,96,96,96,,,,,,,,,,,,,,,,,,,,,,,,,,,,,,,,,,,,,,,,,678.8617503000423,678.8617503000423,678.8617503000423,678.8617503000423,678.8617503000423,678.8617503000423,678.8617503000423,678.8617503000423,678.8617503000423,678.8617503000423,679.8439362999052,679.8772489000112,680.8437954999972,None,,,,,,,,,,,,,,,,,,,,,,,,,,,,,,001,2022-10-22_16h23.27.811,test9,2022.2.4,59.952721328762756,
,,,,,,,,1,nBack1Cond.xlsx,111,1,-0.2,0.2,space,1,98,,,,,,,,,,,,,0,0,0,0,0,97,97,97,,,,,,,,,,,,,,,,,,,,,,,,,,,,,,,,,,,,,,,,,680.86057839985,680.86057839985,680.86057839985,680.86057839985,680.86057839985,680.86057839985,680.86057839985,680.86057839985,680.86057839985,680.86057839985,681.8437454998493,681.8604361000471,682.8437469999772,space,0.41242740023881197,,,,,,,,,,,,,,,,,,,,,,,,,,,,,001,2022-10-22_16h23.27.811,test9,2022.2.4,59.952721328762756,
,,,,,,,,1,nBack1Cond.xlsx,111,1,-0.2,0.2,space,1,99,,,,,,,,,,,,,0,0,0,0,0,98,98,98,,,,,,,,,,,,,,,,,,,,,,,,,,,,,,,,,,,,,,,,,682.8624272998422,682.8624272998422,682.8624272998422,682.8624272998422,682.8624272998422,682.8624272998422,682.8624272998422,682.8624272998422,682.8624272998422,682.8624272998422,683.8439123998396,683.8768247999251,684.8434872999787,space,1.3259316000621766,,,,,,,,,,,,,,,,,,,,,,,,,,,,,001,2022-10-22_16h23.27.811,test9,2022.2.4,59.952721328762756,
,,,,,,,,1,nBack1Cond.xlsx,111,6,0.2,0,None,1,100,,,,,,,,,,,,,0,0,0,0,0,99,99,99,,,,,,,,,,,,,,,,,,,,,,,,,,,,,,,,,,,,,,,,,684.8601108998992,684.8601108998992,684.8601108998992,684.8601108998992,684.8601108998992,684.8601108998992,684.8601108998992,684.8601108998992,684.8601108998992,684.8601108998992,685.8432654000353,685.8599910000339,686.8432412999682,None,,,,,,,,,,,,,,,,,,,,,,,,,,,,,,001,2022-10-22_16h23.27.811,test9,2022.2.4,59.952721328762756,
,,,,,,,,1,nBack1Cond.xlsx,111,3,0.2,0.2,None,1,101,,,,,,,,,,,,,0,0,0,0,0,100,100,100,,,,,,,,,,,,,,,,,,,,,,,,,,,,,,,,,,,,,,,,,686.8605330998544,686.8605330998544,686.8605330998544,686.8605330998544,686.8605330998544,686.8605330998544,686.8605330998544,686.8605330998544,686.8605330998544,686.8605330998544,687.8430679999292,687.859712400008,688.8429194998462,None,,,,,,,,,,,,,,,,,,,,,,,,,,,,,,001,2022-10-22_16h23.27.811,test9,2022.2.4,59.952721328762756,
,,,,,,,,1,nBack1Cond.xlsx,111,1,-0.2,0.2,None,1,102,,,,,,,,,,,,,0,0,0,0,0,101,101,101,,,,,,,,,,,,,,,,,,,,,,,,,,,,,,,,,,,,,,,,,688.8595614000224,688.8595614000224,688.8595614000224,688.8595614000224,688.8595614000224,688.8595614000224,688.8595614000224,688.8595614000224,688.8595614000224,688.8595614000224,689.842727900017,689.8593188000377,690.8426645998843,None,,,,,,,,,,,,,,,,,,,,,,,,,,,,,,001,2022-10-22_16h23.27.811,test9,2022.2.4,59.952721328762756,
,,,,,,,,1,nBack1Cond.xlsx,111,5,0,0,None,1,103,,,,,,,,,,,,,0,0,0,0,0,102,102,102,,,,,,,,,,,,,,,,,,,,,,,,,,,,,,,,,,,,,,,,,690.8594281999394,690.8594281999394,690.8594281999394,690.8594281999394,690.8594281999394,690.8594281999394,690.8594281999394,690.8594281999394,690.8594281999394,690.8594281999394,691.8425090999808,691.8592322999611,692.8424021999817,None,,,,,,,,,,,,,,,,,,,,,,,,,,,,,,001,2022-10-22_16h23.27.811,test9,2022.2.4,59.952721328762756,
,,,,,,,,1,nBack1Cond.xlsx,111,5,0,0,space,1,104,,,,,,,,,,,,,0,0,0,0,0,103,103,103,,,,,,,,,,,,,,,,,,,,,,,,,,,,,,,,,,,,,,,,,692.8609390000347,692.8609390000347,692.8609390000347,692.8609390000347,692.8609390000347,692.8609390000347,692.8609390000347,692.8609390000347,692.8609390000347,692.8609390000347,693.8424031999893,693.8755792998709,694.8420458999462,space,0.33469510031864047,,,,,,,,,,,,,,,,,,,,,,,,,,,,,001,2022-10-22_16h23.27.811,test9,2022.2.4,59.952721328762756,
,,,,,,,,1,nBack1Cond.xlsx,111,8,0,-0.2,None,1,105,,,,,,,,,,,,,0,0,0,0,0,104,104,104,,,,,,,,,,,,,,,,,,,,,,,,,,,,,,,,,,,,,,,,,694.8588163999375,694.8588163999375,694.8588163999375,694.8588163999375,694.8588163999375,694.8588163999375,694.8588163999375,694.8588163999375,694.8588163999375,694.8588163999375,695.8419417999685,695.859309699852,696.8417912998702,None,,,,,,,,,,,,,,,,,,,,,,,,,,,,,,001,2022-10-22_16h23.27.811,test9,2022.2.4,59.952721328762756,
,,,,,,,,1,nBack1Cond.xlsx,111,4,-0.2,0,None,1,106,,,,,,,,,,,,,0,0,0,0,0,105,105,105,,,,,,,,,,,,,,,,,,,,,,,,,,,,,,,,,,,,,,,,,696.8593800999224,696.8593800999224,696.8593800999224,696.8593800999224,696.8593800999224,696.8593800999224,696.8593800999224,696.8593800999224,696.8593800999224,696.8593800999224,697.8418054999784,697.8583327999804,698.8416120000184,space,1.1857597001362592,,,,,,,,,,,,,,,,,,,,,,,,,,,,,001,2022-10-22_16h23.27.811,test9,2022.2.4,59.952721328762756,
,,,,,,,,1,nBack1Cond.xlsx,111,4,-0.2,0,space,1,107,,,,,,,,,,,,,0,0,0,0,0,106,106,106,,,,,,,,,,,,,,,,,,,,,,,,,,,,,,,,,,,,,,,,,698.8583796999883,698.8583796999883,698.8583796999883,698.8583796999883,698.8583796999883,698.8583796999883,698.8583796999883,698.8583796999883,698.8583796999883,698.8583796999883,699.8417157998774,699.8581204998773,700.8413891999517,space,0.5694959000684321,,,,,,,,,,,,,,,,,,,,,,,,,,,,,001,2022-10-22_16h23.27.811,test9,2022.2.4,59.952721328762756,
,,,,,,,,1,nBack1Cond.xlsx,111,2,0,0.2,None,1,108,,,,,,,,,,,,,0,0,0,0,0,107,107,107,,,,,,,,,,,,,,,,,,,,,,,,,,,,,,,,,,,,,,,,,700.8602978999261,700.8602978999261,700.8602978999261,700.8602978999261,700.8602978999261,700.8602978999261,700.8602978999261,700.8602978999261,700.8602978999261,700.8602978999261,701.8411922999658,701.8745800999459,702.8410481999163,None,,,,,,,,,,,,,,,,,,,,,,,,,,,,,,001,2022-10-22_16h23.27.811,test9,2022.2.4,59.952721328762756,
,,,,,,,,1,nBack1Cond.xlsx,111,1,-0.2,0.2,None,1,109,,,,,,,,,,,,,0,0,0,0,0,108,108,108,,,,,,,,,,,,,,,,,,,,,,,,,,,,,,,,,,,,,,,,,702.8576552998275,702.8576552998275,702.8576552998275,702.8576552998275,702.8576552998275,702.8576552998275,702.8576552998275,702.8576552998275,702.8576552998275,702.8576552998275,703.8415403999388,703.857652500039,704.8408814000431,None,,,,,,,,,,,,,,,,,,,,,,,,,,,,,,001,2022-10-22_16h23.27.811,test9,2022.2.4,59.952721328762756,
,,,,,,,,1,nBack1Cond.xlsx,111,8,0,-0.2,None,1,110,,,,,,,,,,,,,0,0,0,0,0,109,109,109,,,,,,,,,,,,,,,,,,,,,,,,,,,,,,,,,,,,,,,,,704.858748300001,704.858748300001,704.858748300001,704.858748300001,704.858748300001,704.858748300001,704.858748300001,704.858748300001,704.858748300001,704.858748300001,705.8412218999583,705.8572716999333,706.840486299945,None,,,,,,,,,,,,,,,,,,,,,,,,,,,,,,001,2022-10-22_16h23.27.811,test9,2022.2.4,59.952721328762756,
,,,,,,,,1,nBack1Cond.xlsx,111,3,0.2,0.2,None,1,111,,,,,,,,,,,,,0,0,0,0,0,110,110,110,,,,,,,,,,,,,,,,,,,,,,,,,,,,,,,,,,,,,,,,,706.8753970998805,706.8753970998805,706.8753970998805,706.8753970998805,706.8753970998805,706.8753970998805,706.8753970998805,706.8753970998805,706.8753970998805,706.8753970998805,707.8407927998342,707.8903131999541,708.8401982998475,None,,,,,,,,,,,,,,,,,,,,,,,,,,,,,,001,2022-10-22_16h23.27.811,test9,2022.2.4,59.952721328762756,
,,,,,,,,1,nBack1Cond.xlsx,111,3,0.2,0.2,space,1,112,,,,,,,,,,,,,0,0,0,0,0,111,111,111,,,,,,,,,,,,,,,,,,,,,,,,,,,,,,,,,,,,,,,,,708.8748761999886,708.8748761999886,708.8748761999886,708.8748761999886,708.8748761999886,708.8748761999886,708.8748761999886,708.8748761999886,708.8748761999886,708.8748761999886,709.8405901999213,709.8900731999893,710.8400754998438,space,0.5805212000850588,,,,,,,,,,,,,,,,,,,,,,,,,,,,,001,2022-10-22_16h23.27.811,test9,2022.2.4,59.952721328762756,
,,,,,,,,1,nBack1Cond.xlsx,111,4,-0.2,0,None,1,113,,,,,,,,,,,,,0,0,0,0,0,112,112,112,,,,,,,,,,,,,,,,,,,,,,,,,,,,,,,,,,,,,,,,,710.8739836998284,710.8739836998284,710.8739836998284,710.8739836998284,710.8739836998284,710.8739836998284,710.8739836998284,710.8739836998284,710.8739836998284,710.8739836998284,711.8398357999977,711.8733001998626,712.8398017999716,None,,,,,,,,,,,,,,,,,,,,,,,,,,,,,,001,2022-10-22_16h23.27.811,test9,2022.2.4,59.952721328762756,
,,,,,,,,1,nBack1Cond.xlsx,111,6,0.2,0,None,1,114,,,,,,,,,,,,,0,0,0,0,0,113,113,113,,,,,,,,,,,,,,,,,,,,,,,,,,,,,,,,,,,,,,,,,712.8730720998719,712.8730720998719,712.8730720998719,712.8730720998719,712.8730720998719,712.8730720998719,712.8730720998719,712.8730720998719,712.8730720998719,712.8730720998719,713.8562793999445,713.8729683000129,714.8561704999302,None,,,,,,,,,,,,,,,,,,,,,,,,,,,,,,001,2022-10-22_16h23.27.811,test9,2022.2.4,59.952721328762756,
,,,,,,,,1,nBack1Cond.xlsx,111,9,0.2,-0.2,None,1,115,,,,,,,,,,,,,0,0,0,0,0,114,114,114,,,,,,,,,,,,,,,,,,,,,,,,,,,,,,,,,,,,,,,,,714.8731722999364,714.8731722999364,714.8731722999364,714.8731722999364,714.8731722999364,714.8731722999364,714.8731722999364,714.8731722999364,714.8731722999364,714.8731722999364,715.8560209998395,715.8727078000084,716.8560293999035,None,,,,,,,,,,,,,,,,,,,,,,,,,,,,,,001,2022-10-22_16h23.27.811,test9,2022.2.4,59.952721328762756,
,,,,,,,,1,nBack1Cond.xlsx,111,9,0.2,-0.2,space,1,116,,,,,,,,,,,,,0,0,0,0,0,115,115,115,,,,,,,,,,,,,,,,,,,,,,,,,,,,,,,,,,,,,,,,,716.8737448998727,716.8737448998727,716.8737448998727,716.8737448998727,716.8737448998727,716.8737448998727,716.8737448998727,716.8737448998727,716.8737448998727,716.8737448998727,717.8559685000218,717.8890277999453,718.8557015999686,space,0.43842740007676184,,,,,,,,,,,,,,,,,,,,,,,,,,,,,001,2022-10-22_16h23.27.811,test9,2022.2.4,59.952721328762756,
,,,,,,,,1,nBack1Cond.xlsx,111,2,0,0.2,None,1,117,,,,,,,,,,,,,0,0,0,0,0,116,116,116,,,,,,,,,,,,,,,,,,,,,,,,,,,,,,,,,,,,,,,,,718.8740097999107,718.8740097999107,718.8740097999107,718.8740097999107,718.8740097999107,718.8740097999107,718.8740097999107,718.8740097999107,718.8740097999107,718.8740097999107,719.8555548998993,719.8889367999509,720.855479999911,None,,,,,,,,,,,,,,,,,,,,,,,,,,,,,,001,2022-10-22_16h23.27.811,test9,2022.2.4,59.952721328762756,
,,,,,,,,1,nBack1Cond.xlsx,111,6,0.2,0,None,1,118,,,,,,,,,,,,,0,0,0,0,0,117,117,117,,,,,,,,,,,,,,,,,,,,,,,,,,,,,,,,,,,,,,,,,720.873443499906,720.873443499906,720.873443499906,720.873443499906,720.873443499906,720.873443499906,720.873443499906,720.873443499906,720.873443499906,720.873443499906,721.8553931999486,721.8885904999916,722.8552309998777,None,,,,,,,,,,,,,,,,,,,,,,,,,,,,,,001,2022-10-22_16h23.27.811,test9,2022.2.4,59.952721328762756,
,,,,,,,,1,nBack1Cond.xlsx,111,6,0.2,0,space,1,119,,,,,,,,,,,,,0,0,0,0,0,118,118,118,,,,,,,,,,,,,,,,,,,,,,,,,,,,,,,,,,,,,,,,,722.8727781998459,722.8727781998459,722.8727781998459,722.8727781998459,722.8727781998459,722.8727781998459,722.8727781998459,722.8727781998459,722.8727781998459,722.8727781998459,723.8553607999347,723.8715496999212,724.8548014999833,space,0.45844090008176863,,,,,,,,,,,,,,,,,,,,,,,,,,,,,001,2022-10-22_16h23.27.811,test9,2022.2.4,59.952721328762756,
,,,,,,,,1,nBack1Cond.xlsx,111,,,,,,,,,,,,,,,,,,,0,0,0,0,,,,,,,,,,,,,,,,,,,,,,,,,,,,,,,,,,,,,,,,,,,,,,,,,,,,,,,,,,,,,,,,,,,,,,,,,,,,,,,,,,,,,,,,001,2022-10-22_16h23.27.811,test9,2022.2.4,59.952721328762756,
,,,,,,,,2,nBack2Cond.xlsx,121,5,0,0,None,2,120,,,,,,,,,,,,,0,1,1,1,0,0,0,0,,,,,,,,,,,,,,,,,,,,,,,,,,,,,,,,,,,,,724.920100599993,724.920100599993,724.920100599993,724.920100599993,726.6797231999226,726.6797231999226,726.6797231999226,726.6797231999226,726.6797231999226,726.6797231999226,726.6797231999226,726.6797231999226,726.6797231999226,726.6797231999226,727.6215470999014,727.6878096000291,728.6211757999845,None,,,,,,,,,,,,,,,,,,,,,,,,,,,,,,001,2022-10-22_16h23.27.811,test9,2022.2.4,59.952721328762756,
,,,,,,,,2,nBack2Cond.xlsx,121,2,0,0.2,None,2,121,,,,,,,,,,,,,0,1,1,1,0,1,1,1,,,,,,,,,,,,,,,,,,,,,,,,,,,,,,,,,,,,,,,,,728.6408693999983,728.6408693999983,728.6408693999983,728.6408693999983,728.6408693999983,728.6408693999983,728.6408693999983,728.6408693999983,728.6408693999983,728.6408693999983,729.6221787000541,729.6545394000132,,None,,,,,,,,,,,,,,,,,,,,,,,,,,,,,,001,2022-10-22_16h23.27.811,test9,2022.2.4,59.952721328762756,
,,,,,,,,2,nBack2Cond.xlsx,121,6,0.2,0,None,2,122,,,,,,,,,,,,,0,1,1,1,0,2,2,2,,,,,,,,,,,,,,,,,,,,,,,,,,,,,,,,,,,,,,,,,730.6394223000389,730.6394223000389,730.6394223000389,730.6394223000389,730.6394223000389,730.6394223000389,730.6394223000389,730.6394223000389,730.6394223000389,730.6394223000389,731.6206691998523,731.653999999864,732.6206429998856,None,,,,,,,,,,,,,,,,,,,,,,,,,,,,,,001,2022-10-22_16h23.27.811,test9,2022.2.4,59.952721328762756,
,,,,,,,,2,nBack2Cond.xlsx,121,9,0.2,-0.2,None,2,123,,,,,,,,,,,,,0,1,1,1,0,3,3,3,,,,,,,,,,,,,,,,,,,,,,,,,,,,,,,,,,,,,,,,,732.6396772998851,732.6396772998851,732.6396772998851,732.6396772998851,732.6396772998851,732.6396772998851,732.6396772998851,732.6396772998851,732.6396772998851,732.6396772998851,733.6205209000036,733.6536836000159,734.6203103000298,None,,,,,,,,,,,,,,,,,,,,,,,,,,,,,,001,2022-10-22_16h23.27.811,test9,2022.2.4,59.952721328762756,
,,,,,,,,2,nBack2Cond.xlsx,121,3,0.2,0.2,None,2,124,,,,,,,,,,,,,0,1,1,1,0,4,4,4,,,,,,,,,,,,,,,,,,,,,,,,,,,,,,,,,,,,,,,,,734.6369729998987,734.6369729998987,734.6369729998987,734.6369729998987,734.6369729998987,734.6369729998987,734.6369729998987,734.6369729998987,734.6369729998987,734.6369729998987,735.620169099886,735.6368730999529,736.6200194000266,None,,,,,,,,,,,,,,,,,,,,,,,,,,,,,,001,2022-10-22_16h23.27.811,test9,2022.2.4,59.952721328762756,
,,,,,,,,2,nBack2Cond.xlsx,121,9,0.2,-0.2,space,2,125,,,,,,,,,,,,,0,1,1,1,0,5,5,5,,,,,,,,,,,,,,,,,,,,,,,,,,,,,,,,,,,,,,,,,736.6382573000155,736.6382573000155,736.6382573000155,736.6382573000155,736.6382573000155,736.6382573000155,736.6382573000155,736.6382573000155,736.6382573000155,736.6382573000155,737.6201082998887,737.6533623998985,738.6197821998503,space,0.4403311002533883,,,,,,,,,,,,,,,,,,,,,,,,,,,,,001,2022-10-22_16h23.27.811,test9,2022.2.4,59.952721328762756,
,,,,,,,,2,nBack2Cond.xlsx,121,7,-0.2,-0.2,None,2,126,,,,,,,,,,,,,0,1,1,1,0,6,6,6,,,,,,,,,,,,,,,,,,,,,,,,,,,,,,,,,,,,,,,,,738.6366097999271,738.6366097999271,738.6366097999271,738.6366097999271,738.6366097999271,738.6366097999271,738.6366097999271,738.6366097999271,738.6366097999271,738.6366097999271,739.6201575999148,739.6362470998429,740.6193074998446,None,,,,,,,,,,,,,,,,,,,,,,,,,,,,,,001,2022-10-22_16h23.27.811,test9,2022.2.4,59.952721328762756,
,,,,,,,,2,nBack2Cond.xlsx,121,1,-0.2,0.2,None,2,127,,,,,,,,,,,,,0,1,1,1,0,7,7,7,,,,,,,,,,,,,,,,,,,,,,,,,,,,,,,,,,,,,,,,,740.6362433999311,740.6362433999311,740.6362433999311,740.6362433999311,740.6362433999311,740.6362433999311,740.6362433999311,740.6362433999311,740.6362433999311,740.6362433999311,741.6193720998708,741.636004799977,742.6192906999495,None,,,,,,,,,,,,,,,,,,,,,,,,,,,,,,001,2022-10-22_16h23.27.811,test9,2022.2.4,59.952721328762756,
,,,,,,,,2,nBack2Cond.xlsx,121,5,0,0,None,2,128,,,,,,,,,,,,,0,1,1,1,0,8,8,8,,,,,,,,,,,,,,,,,,,,,,,,,,,,,,,,,,,,,,,,,742.6374853998423,742.6374853998423,742.6374853998423,742.6374853998423,742.6374853998423,742.6374853998423,742.6374853998423,742.6374853998423,742.6374853998423,742.6374853998423,743.6191616998985,743.6524940999225,744.6189659999218,None,,,,,,,,,,,,,,,,,,,,,,,,,,,,,,001,2022-10-22_16h23.27.811,test9,2022.2.4,59.952721328762756,
,,,,,,,,2,nBack2Cond.xlsx,121,7,-0.2,-0.2,None,2,129,,,,,,,,,,,,,0,1,1,1,0,9,9,9,,,,,,,,,,,,,,,,,,,,,,,,,,,,,,,,,,,,,,,,,744.6356267000083,744.6356267000083,744.6356267000083,744.6356267000083,744.6356267000083,744.6356267000083,744.6356267000083,744.6356267000083,744.6356267000083,744.6356267000083,745.6191662000492,745.6355657000095,746.6187346999068,None,,,,,,,,,,,,,,,,,,,,,,,,,,,,,,001,2022-10-22_16h23.27.811,test9,2022.2.4,59.952721328762756,
,,,,,,,,2,nBack2Cond.xlsx,121,5,0,0,space,2,130,,,,,,,,,,,,,0,1,1,1,0,10,10,10,,,,,,,,,,,,,,,,,,,,,,,,,,,,,,,,,,,,,,,,,746.6362790998537,746.6362790998537,746.6362790998537,746.6362790998537,746.6362790998537,746.6362790998537,746.6362790998537,746.6362790998537,746.6362790998537,746.6362790998537,747.6185467999894,747.6518276999705,748.6182949000504,space,0.448649600148201,,,,,,,,,,,,,,,,,,,,,,,,,,,,,001,2022-10-22_16h23.27.811,test9,2022.2.4,59.952721328762756,
,,,,,,,,2,nBack2Cond.xlsx,121,6,0.2,0,None,2,131,,,,,,,,,,,,,0,1,1,1,0,11,11,11,,,,,,,,,,,,,,,,,,,,,,,,,,,,,,,,,,,,,,,,,748.6360086998902,748.6360086998902,748.6360086998902,748.6360086998902,748.6360086998902,748.6360086998902,748.6360086998902,748.6360086998902,748.6360086998902,748.6360086998902,749.6200769999996,749.6349589000456,,None,,,,,,,,,,,,,,,,,,,,,,,,,,,,,,001,2022-10-22_16h23.27.811,test9,2022.2.4,59.952721328762756,
,,,,,,,,2,nBack2Cond.xlsx,121,3,0.2,0.2,None,2,132,,,,,,,,,,,,,0,1,1,1,0,12,12,12,,,,,,,,,,,,,,,,,,,,,,,,,,,,,,,,,,,,,,,,,750.6353964998852,750.6353964998852,750.6353964998852,750.6353964998852,750.6353964998852,750.6353964998852,750.6353964998852,750.6353964998852,750.6353964998852,750.6353964998852,751.618259199895,751.6347168998327,752.6178701999597,None,,,,,,,,,,,,,,,,,,,,,,,,,,,,,,001,2022-10-22_16h23.27.811,test9,2022.2.4,59.952721328762756,
,,,,,,,,2,nBack2Cond.xlsx,121,6,0.2,0,space,2,133,,,,,,,,,,,,,0,1,1,1,0,13,13,13,,,,,,,,,,,,,,,,,,,,,,,,,,,,,,,,,,,,,,,,,752.6360642998479,752.6360642998479,752.6360642998479,752.6360642998479,752.6360642998479,752.6360642998479,752.6360642998479,752.6360642998479,752.6360642998479,752.6360642998479,753.6182392998599,753.6510286999401,754.6176608998794,space,0.47200980014167726,,,,,,,,,,,,,,,,,,,,,,,,,,,,,001,2022-10-22_16h23.27.811,test9,2022.2.4,59.952721328762756,
,,,,,,,,2,nBack2Cond.xlsx,121,8,0,-0.2,None,2,134,,,,,,,,,,,,,0,1,1,1,0,14,14,14,,,,,,,,,,,,,,,,,,,,,,,,,,,,,,,,,,,,,,,,,754.6354181000497,754.6354181000497,754.6354181000497,754.6354181000497,754.6354181000497,754.6354181000497,754.6354181000497,754.6354181000497,754.6354181000497,754.6354181000497,755.6175251998939,755.6507532000542,756.6174806000199,None,,,,,,,,,,,,,,,,,,,,,,,,,,,,,,001,2022-10-22_16h23.27.811,test9,2022.2.4,59.952721328762756,
,,,,,,,,2,nBack2Cond.xlsx,121,9,0.2,-0.2,None,2,135,,,,,,,,,,,,,0,1,1,1,0,15,15,15,,,,,,,,,,,,,,,,,,,,,,,,,,,,,,,,,,,,,,,,,756.6341502000578,756.6341502000578,756.6341502000578,756.6341502000578,756.6341502000578,756.6341502000578,756.6341502000578,756.6341502000578,756.6341502000578,756.6341502000578,757.6174008999951,757.6339763000142,758.6171094998717,None,,,,,,,,,,,,,,,,,,,,,,,,,,,,,,001,2022-10-22_16h23.27.811,test9,2022.2.4,59.952721328762756,
,,,,,,,,2,nBack2Cond.xlsx,121,9,0.2,-0.2,None,2,136,,,,,,,,,,,,,0,1,1,1,0,16,16,16,,,,,,,,,,,,,,,,,,,,,,,,,,,,,,,,,,,,,,,,,758.6351286000572,758.6351286000572,758.6351286000572,758.6351286000572,758.6351286000572,758.6351286000572,758.6351286000572,758.6351286000572,758.6351286000572,758.6351286000572,759.6173211999703,759.6505513999145,760.6167998998426,space,0.38008420006372035,,,,,,,,,,,,,,,,,,,,,,,,,,,,,001,2022-10-22_16h23.27.811,test9,2022.2.4,59.952721328762756,
,,,,,,,,2,nBack2Cond.xlsx,121,1,-0.2,0.2,None,2,137,,,,,,,,,,,,,0,1,1,1,0,17,17,17,,,,,,,,,,,,,,,,,,,,,,,,,,,,,,,,,,,,,,,,,760.6344228999224,760.6344228999224,760.6344228999224,760.6344228999224,760.6344228999224,760.6344228999224,760.6344228999224,760.6344228999224,760.6344228999224,760.6344228999224,761.6166558999103,761.6503135999665,762.6166342999786,None,,,,,,,,,,,,,,,,,,,,,,,,,,,,,,001,2022-10-22_16h23.27.811,test9,2022.2.4,59.952721328762756,
,,,,,,,,2,nBack2Cond.xlsx,121,3,0.2,0.2,None,2,138,,,,,,,,,,,,,0,1,1,1,0,18,18,18,,,,,,,,,,,,,,,,,,,,,,,,,,,,,,,,,,,,,,,,,762.6335521000437,762.6335521000437,762.6335521000437,762.6335521000437,762.6335521000437,762.6335521000437,762.6335521000437,762.6335521000437,762.6335521000437,762.6335521000437,763.6166121999267,763.6331559000537,764.6164165998343,None,,,,,,,,,,,,,,,,,,,,,,,,,,,,,,001,2022-10-22_16h23.27.811,test9,2022.2.4,59.952721328762756,
,,,,,,,,2,nBack2Cond.xlsx,121,5,0,0,None,2,139,,,,,,,,,,,,,0,1,1,1,0,19,19,19,,,,,,,,,,,,,,,,,,,,,,,,,,,,,,,,,,,,,,,,,764.6345039999578,764.6345039999578,764.6345039999578,764.6345039999578,764.6345039999578,764.6345039999578,764.6345039999578,764.6345039999578,764.6345039999578,764.6345039999578,765.6166264999192,765.649619899923,766.6160791998263,None,,,,,,,,,,,,,,,,,,,,,,,,,,,,,,001,2022-10-22_16h23.27.811,test9,2022.2.4,59.952721328762756,
,,,,,,,,2,nBack2Cond.xlsx,121,3,0.2,0.2,space,2,140,,,,,,,,,,,,,0,1,1,1,0,20,20,20,,,,,,,,,,,,,,,,,,,,,,,,,,,,,,,,,,,,,,,,,766.6328573999926,766.6328573999926,766.6328573999926,766.6328573999926,766.6328573999926,766.6328573999926,766.6328573999926,766.6328573999926,766.6328573999926,766.6328573999926,767.6158968999516,767.632760599954,768.6159457999747,space,0.6111180002335459,,,,,,,,,,,,,,,,,,,,,,,,,,,,,001,2022-10-22_16h23.27.811,test9,2022.2.4,59.952721328762756,
,,,,,,,,2,nBack2Cond.xlsx,121,4,-0.2,0,None,2,141,,,,,,,,,,,,,0,1,1,1,0,21,21,21,,,,,,,,,,,,,,,,,,,,,,,,,,,,,,,,,,,,,,,,,768.6326732998714,768.6326732998714,768.6326732998714,768.6326732998714,768.6326732998714,768.6326732998714,768.6326732998714,768.6326732998714,768.6326732998714,768.6326732998714,769.616387899965,769.6324140999932,770.6156754000112,None,,,,,,,,,,,,,,,,,,,,,,,,,,,,,,001,2022-10-22_16h23.27.811,test9,2022.2.4,59.952721328762756,
,,,,,,,,2,nBack2Cond.xlsx,121,7,-0.2,-0.2,None,2,142,,,,,,,,,,,,,0,1,1,1,0,22,22,22,,,,,,,,,,,,,,,,,,,,,,,,,,,,,,,,,,,,,,,,,770.6335909999907,770.6335909999907,770.6335909999907,770.6335909999907,770.6335909999907,770.6335909999907,770.6335909999907,770.6335909999907,770.6335909999907,770.6335909999907,771.6163816999178,771.6319945999421,,None,,,,,,,,,,,,,,,,,,,,,,,,,,,,,,001,2022-10-22_16h23.27.811,test9,2022.2.4,59.952721328762756,
,,,,,,,,2,nBack2Cond.xlsx,121,4,-0.2,0,space,2,143,,,,,,,,,,,,,0,1,1,1,0,23,23,23,,,,,,,,,,,,,,,,,,,,,,,,,,,,,,,,,,,,,,,,,772.6319901999086,772.6319901999086,772.6319901999086,772.6319901999086,772.6319901999086,772.6319901999086,772.6319901999086,772.6319901999086,772.6319901999086,772.6319901999086,773.6149728999007,773.6316565000452,774.6150723998435,space,0.4329957002773881,,,,,,,,,,,,,,,,,,,,,,,,,,,,,001,2022-10-22_16h23.27.811,test9,2022.2.4,59.952721328762756,
,,,,,,,,2,nBack2Cond.xlsx,121,4,-0.2,0,None,2,144,,,,,,,,,,,,,0,1,1,1,0,24,24,24,,,,,,,,,,,,,,,,,,,,,,,,,,,,,,,,,,,,,,,,,774.6332246998791,774.6332246998791,774.6332246998791,774.6332246998791,774.6332246998791,774.6332246998791,774.6332246998791,774.6332246998791,774.6332246998791,774.6332246998791,775.6149656998459,775.6482502999716,776.6149263998959,None,,,,,,,,,,,,,,,,,,,,,,,,,,,,,,001,2022-10-22_16h23.27.811,test9,2022.2.4,59.952721328762756,
,,,,,,,,2,nBack2Cond.xlsx,121,5,0,0,None,2,145,,,,,,,,,,,,,0,1,1,1,0,25,25,25,,,,,,,,,,,,,,,,,,,,,,,,,,,,,,,,,,,,,,,,,776.6341748998966,776.6341748998966,776.6341748998966,776.6341748998966,776.6341748998966,776.6341748998966,776.6341748998966,776.6341748998966,776.6341748998966,776.6341748998966,777.614868799923,777.647937099915,778.6145492999349,None,,,,,,,,,,,,,,,,,,,,,,,,,,,,,,001,2022-10-22_16h23.27.811,test9,2022.2.4,59.952721328762756,
,,,,,,,,2,nBack2Cond.xlsx,121,2,0,0.2,None,2,146,,,,,,,,,,,,,0,1,1,1,0,26,26,26,,,,,,,,,,,,,,,,,,,,,,,,,,,,,,,,,,,,,,,,,778.6322542999405,778.6322542999405,778.6322542999405,778.6322542999405,778.6322542999405,778.6322542999405,778.6322542999405,778.6322542999405,778.6322542999405,778.6322542999405,779.6194185998756,779.6352729999926,,None,,,,,,,,,,,,,,,,,,,,,,,,,,,,,,001,2022-10-22_16h23.27.811,test9,2022.2.4,59.952721328762756,
,,,,,,,,2,nBack2Cond.xlsx,121,6,0.2,0,None,2,147,,,,,,,,,,,,,0,1,1,1,0,27,27,27,,,,,,,,,,,,,,,,,,,,,,,,,,,,,,,,,,,,,,,,,780.633884999901,780.633884999901,780.633884999901,780.633884999901,780.633884999901,780.633884999901,780.633884999901,780.633884999901,780.633884999901,780.633884999901,781.614148600027,781.6473562999163,782.614016499836,None,,,,,,,,,,,,,,,,,,,,,,,,,,,,,,001,2022-10-22_16h23.27.811,test9,2022.2.4,59.952721328762756,
,,,,,,,,2,nBack2Cond.xlsx,121,7,-0.2,-0.2,None,2,148,,,,,,,,,,,,,0,1,1,1,0,28,28,28,,,,,,,,,,,,,,,,,,,,,,,,,,,,,,,,,,,,,,,,,782.6311888999771,782.6311888999771,782.6311888999771,782.6311888999771,782.6311888999771,782.6311888999771,782.6311888999771,782.6311888999771,782.6311888999771,782.6311888999771,783.6140011998359,783.6305064000189,784.6138120000251,space,0.8867937000468373,,,,,,,,,,,,,,,,,,,,,,,,,,,,,001,2022-10-22_16h23.27.811,test9,2022.2.4,59.952721328762756,
,,,,,,,,2,nBack2Cond.xlsx,121,6,0.2,0,space,2,149,,,,,,,,,,,,,0,1,1,1,0,29,29,29,,,,,,,,,,,,,,,,,,,,,,,,,,,,,,,,,,,,,,,,,784.6306759999134,784.6306759999134,784.6306759999134,784.6306759999134,784.6306759999134,784.6306759999134,784.6306759999134,784.6306759999134,784.6306759999134,784.6306759999134,785.6136027998291,785.6301790999714,786.6135792999994,space,0.29434830020181835,,,,,,,,,,,,,,,,,,,,,,,,,,,,,001,2022-10-22_16h23.27.811,test9,2022.2.4,59.952721328762756,
,,,,,,,,2,nBack2Cond.xlsx,121,8,0,-0.2,None,2,150,,,,,,,,,,,,,0,1,1,1,0,30,30,30,,,,,,,,,,,,,,,,,,,,,,,,,,,,,,,,,,,,,,,,,786.6301616998389,786.6301616998389,786.6301616998389,786.6301616998389,786.6301616998389,786.6301616998389,786.6301616998389,786.6301616998389,786.6301616998389,786.6301616998389,787.6133371999022,787.6300037000328,788.6133918999694,None,,,,,,,,,,,,,,,,,,,,,,,,,,,,,,001,2022-10-22_16h23.27.811,test9,2022.2.4,59.952721328762756,
,,,,,,,,2,nBack2Cond.xlsx,121,2,0,0.2,None,2,151,,,,,,,,,,,,,0,1,1,1,0,31,31,31,,,,,,,,,,,,,,,,,,,,,,,,,,,,,,,,,,,,,,,,,788.6317149000242,788.6317149000242,788.6317149000242,788.6317149000242,788.6317149000242,788.6317149000242,788.6317149000242,788.6317149000242,788.6317149000242,788.6317149000242,789.6131649999879,789.6465481000487,790.6130375999492,None,,,,,,,,,,,,,,,,,,,,,,,,,,,,,,001,2022-10-22_16h23.27.811,test9,2022.2.4,59.952721328762756,
,,,,,,,,2,nBack2Cond.xlsx,121,8,0,-0.2,space,2,152,,,,,,,,,,,,,0,1,1,1,0,32,32,32,,,,,,,,,,,,,,,,,,,,,,,,,,,,,,,,,,,,,,,,,790.6297096998896,790.6297096998896,790.6297096998896,790.6297096998896,790.6297096998896,790.6297096998896,790.6297096998896,790.6297096998896,790.6297096998896,790.6297096998896,791.6131152999587,791.6295514998492,792.6127190999687,space,0.5255450999829918,,,,,,,,,,,,,,,,,,,,,,,,,,,,,001,2022-10-22_16h23.27.811,test9,2022.2.4,59.952721328762756,
,,,,,,,,2,nBack2Cond.xlsx,121,9,0.2,-0.2,None,2,153,,,,,,,,,,,,,0,1,1,1,0,33,33,33,,,,,,,,,,,,,,,,,,,,,,,,,,,,,,,,,,,,,,,,,792.6321890000254,792.6321890000254,792.6321890000254,792.6321890000254,792.6321890000254,792.6321890000254,792.6321890000254,792.6321890000254,792.6321890000254,792.6321890000254,793.6142961999867,793.6470554999541,794.6183445998468,None,,,,,,,,,,,,,,,,,,,,,,,,,,,,,,001,2022-10-22_16h23.27.811,test9,2022.2.4,59.952721328762756,
,,,,,,,,2,nBack2Cond.xlsx,121,6,0.2,0,None,2,154,,,,,,,,,,,,,0,1,1,1,0,34,34,34,,,,,,,,,,,,,,,,,,,,,,,,,,,,,,,,,,,,,,,,,794.636877699988,794.636877699988,794.636877699988,794.636877699988,794.636877699988,794.636877699988,794.636877699988,794.636877699988,794.636877699988,794.636877699988,795.6123995999806,795.6455885998439,796.6122375000268,None,,,,,,,,,,,,,,,,,,,,,,,,,,,,,,001,2022-10-22_16h23.27.811,test9,2022.2.4,59.952721328762756,
,,,,,,,,2,nBack2Cond.xlsx,121,9,0.2,-0.2,space,2,155,,,,,,,,,,,,,0,1,1,1,0,35,35,35,,,,,,,,,,,,,,,,,,,,,,,,,,,,,,,,,,,,,,,,,796.6306689998601,796.6306689998601,796.6306689998601,796.6306689998601,796.6306689998601,796.6306689998601,796.6306689998601,796.6306689998601,796.6306689998601,796.6306689998601,797.612021900015,797.6453507000115,798.6118238000199,space,0.43350830022245646,,,,,,,,,,,,,,,,,,,,,,,,,,,,,001,2022-10-22_16h23.27.811,test9,2022.2.4,59.952721328762756,
,,,,,,,,2,nBack2Cond.xlsx,121,4,-0.2,0,None,2,156,,,,,,,,,,,,,0,1,1,1,0,36,36,36,,,,,,,,,,,,,,,,,,,,,,,,,,,,,,,,,,,,,,,,,798.6301497998647,798.6301497998647,798.6301497998647,798.6301497998647,798.6301497998647,798.6301497998647,798.6301497998647,798.6301497998647,798.6301497998647,798.6301497998647,799.61183599988,799.6451872999314,800.6117742999922,None,,,,,,,,,,,,,,,,,,,,,,,,,,,,,,001,2022-10-22_16h23.27.811,test9,2022.2.4,59.952721328762756,
,,,,,,,,2,nBack2Cond.xlsx,121,3,0.2,0.2,None,2,157,,,,,,,,,,,,,0,1,1,1,0,37,37,37,,,,,,,,,,,,,,,,,,,,,,,,,,,,,,,,,,,,,,,,,800.6300186000299,800.6300186000299,800.6300186000299,800.6300186000299,800.6300186000299,800.6300186000299,800.6300186000299,800.6300186000299,800.6300186000299,800.6300186000299,801.6117002000101,801.6448558999691,802.6129419999197,None,,,,,,,,,,,,,,,,,,,,,,,,,,,,,,001,2022-10-22_16h23.27.811,test9,2022.2.4,59.952721328762756,
,,,,,,,,2,nBack2Cond.xlsx,121,8,0,-0.2,None,2,158,,,,,,,,,,,,,0,1,1,1,0,38,38,38,,,,,,,,,,,,,,,,,,,,,,,,,,,,,,,,,,,,,,,,,802.6302795000374,802.6302795000374,802.6302795000374,802.6302795000374,802.6302795000374,802.6302795000374,802.6302795000374,802.6302795000374,802.6302795000374,802.6302795000374,803.6116002998315,803.6444758998696,804.6111594999675,None,,,,,,,,,,,,,,,,,,,,,,,,,,,,,,001,2022-10-22_16h23.27.811,test9,2022.2.4,59.952721328762756,
,,,,,,,,2,nBack2Cond.xlsx,121,3,0.2,0.2,space,2,159,,,,,,,,,,,,,0,1,1,1,0,39,39,39,,,,,,,,,,,,,,,,,,,,,,,,,,,,,,,,,,,,,,,,,804.6283857000526,804.6283857000526,804.6283857000526,804.6283857000526,804.6283857000526,804.6283857000526,804.6283857000526,804.6283857000526,804.6283857000526,804.6283857000526,805.6114874000195,805.6276155000087,806.6108943000436,space,0.5593532000202686,,,,,,,,,,,,,,,,,,,,,,,,,,,,,001,2022-10-22_16h23.27.811,test9,2022.2.4,59.952721328762756,
,,,,,,,,2,nBack2Cond.xlsx,121,1,-0.2,0.2,None,2,160,,,,,,,,,,,,,0,1,1,1,0,40,40,40,,,,,,,,,,,,,,,,,,,,,,,,,,,,,,,,,,,,,,,,,806.6297444000375,806.6297444000375,806.6297444000375,806.6297444000375,806.6297444000375,806.6297444000375,806.6297444000375,806.6297444000375,806.6297444000375,806.6297444000375,807.6108391999733,807.6441221998539,808.610760099953,None,,,,,,,,,,,,,,,,,,,,,,,,,,,,,,001,2022-10-22_16h23.27.811,test9,2022.2.4,59.952721328762756,
,,,,,,,,2,nBack2Cond.xlsx,121,4,-0.2,0,None,2,161,,,,,,,,,,,,,0,1,1,1,0,41,41,41,,,,,,,,,,,,,,,,,,,,,,,,,,,,,,,,,,,,,,,,,808.6291493999306,808.6291493999306,808.6291493999306,808.6291493999306,808.6291493999306,808.6291493999306,808.6291493999306,808.6291493999306,808.6291493999306,808.6291493999306,809.6109881999437,809.6439831999596,810.6102636000142,None,,,,,,,,,,,,,,,,,,,,,,,,,,,,,,001,2022-10-22_16h23.27.811,test9,2022.2.4,59.952721328762756,
,,,,,,,,2,nBack2Cond.xlsx,121,2,0,0.2,None,2,162,,,,,,,,,,,,,0,1,1,1,0,42,42,42,,,,,,,,,,,,,,,,,,,,,,,,,,,,,,,,,,,,,,,,,810.643840600038,810.643840600038,810.643840600038,810.643840600038,810.643840600038,810.643840600038,810.643840600038,810.643840600038,810.643840600038,810.643840600038,811.6102944000158,811.6436198998708,812.6102018998936,None,,,,,,,,,,,,,,,,,,,,,,,,,,,,,,001,2022-10-22_16h23.27.811,test9,2022.2.4,59.952721328762756,
,,,,,,,,2,nBack2Cond.xlsx,121,4,-0.2,0,space,2,163,,,,,,,,,,,,,0,1,1,1,0,43,43,43,,,,,,,,,,,,,,,,,,,,,,,,,,,,,,,,,,,,,,,,,812.6435571999755,812.6435571999755,812.6435571999755,812.6435571999755,812.6435571999755,812.6435571999755,812.6435571999755,812.6435571999755,812.6435571999755,812.6435571999755,813.6103419999126,813.6432586999144,814.6098815998994,space,0.5918463000562042,,,,,,,,,,,,,,,,,,,,,,,,,,,,,001,2022-10-22_16h23.27.811,test9,2022.2.4,59.952721328762756,
,,,,,,,,2,nBack2Cond.xlsx,121,8,0,-0.2,None,2,164,,,,,,,,,,,,,0,1,1,1,0,44,44,44,,,,,,,,,,,,,,,,,,,,,,,,,,,,,,,,,,,,,,,,,814.6443196998443,814.6443196998443,814.6443196998443,814.6443196998443,814.6443196998443,814.6443196998443,814.6443196998443,814.6443196998443,814.6443196998443,814.6443196998443,815.6104651000351,815.6597603999544,816.609584899852,None,,,,,,,,,,,,,,,,,,,,,,,,,,,,,,001,2022-10-22_16h23.27.811,test9,2022.2.4,59.952721328762756,
,,,,,,,,2,nBack2Cond.xlsx,121,5,0,0,None,2,165,,,,,,,,,,,,,0,1,1,1,0,45,45,45,,,,,,,,,,,,,,,,,,,,,,,,,,,,,,,,,,,,,,,,,816.6443675998598,816.6443675998598,816.6443675998598,816.6443675998598,816.6443675998598,816.6443675998598,816.6443675998598,816.6443675998598,816.6443675998598,816.6443675998598,817.6096232999116,817.6593940998428,818.609731500037,space,0.3789268000982702,,,,,,,,,,,,,,,,,,,,,,,,,,,,,001,2022-10-22_16h23.27.811,test9,2022.2.4,59.952721328762756,
,,,,,,,,2,nBack2Cond.xlsx,121,1,-0.2,0.2,None,2,166,,,,,,,,,,,,,0,1,1,1,0,46,46,46,,,,,,,,,,,,,,,,,,,,,,,,,,,,,,,,,,,,,,,,,818.6448723999783,818.6448723999783,818.6448723999783,818.6448723999783,818.6448723999783,818.6448723999783,818.6448723999783,818.6448723999783,818.6448723999783,818.6448723999783,819.6258187999483,819.659525499912,820.6257775998674,None,,,,,,,,,,,,,,,,,,,,,,,,,,,,,,001,2022-10-22_16h23.27.811,test9,2022.2.4,59.952721328762756,
,,,,,,,,2,nBack2Cond.xlsx,121,5,0,0,space,2,167,,,,,,,,,,,,,0,1,1,1,0,47,47,47,,,,,,,,,,,,,,,,,,,,,,,,,,,,,,,,,,,,,,,,,820.6428280998953,820.6428280998953,820.6428280998953,820.6428280998953,820.6428280998953,820.6428280998953,820.6428280998953,820.6428280998953,820.6428280998953,820.6428280998953,821.6259119999595,821.6424073998351,822.6255234000273,None,,,,,,,,,,,,,,,,,,,,,,,,,,,,,,001,2022-10-22_16h23.27.811,test9,2022.2.4,59.952721328762756,
,,,,,,,,2,nBack2Cond.xlsx,121,3,0.2,0.2,None,2,168,,,,,,,,,,,,,0,1,1,1,0,48,48,48,,,,,,,,,,,,,,,,,,,,,,,,,,,,,,,,,,,,,,,,,822.6433021998964,822.6433021998964,822.6433021998964,822.6433021998964,822.6433021998964,822.6433021998964,822.6433021998964,822.6433021998964,822.6433021998964,822.6433021998964,823.6253871000372,823.6586008998565,824.6251902999356,None,,,,,,,,,,,,,,,,,,,,,,,,,,,,,,001,2022-10-22_16h23.27.811,test9,2022.2.4,59.952721328762756,
,,,,,,,,2,nBack2Cond.xlsx,121,6,0.2,0,None,2,169,,,,,,,,,,,,,0,1,1,1,0,49,49,49,,,,,,,,,,,,,,,,,,,,,,,,,,,,,,,,,,,,,,,,,824.6419690998737,824.6419690998737,824.6419690998737,824.6419690998737,824.6419690998737,824.6419690998737,824.6419690998737,824.6419690998737,824.6419690998737,824.6419690998737,825.6251956999768,825.6417604999151,826.6250344000291,None,,,,,,,,,,,,,,,,,,,,,,,,,,,,,,001,2022-10-22_16h23.27.811,test9,2022.2.4,59.952721328762756,
,,,,,,,,2,nBack2Cond.xlsx,121,1,-0.2,0.2,None,2,170,,,,,,,,,,,,,0,1,1,1,0,50,50,50,,,,,,,,,,,,,,,,,,,,,,,,,,,,,,,,,,,,,,,,,826.6429552999325,826.6429552999325,826.6429552999325,826.6429552999325,826.6429552999325,826.6429552999325,826.6429552999325,826.6429552999325,826.6429552999325,826.6429552999325,827.6248037000187,827.6581796999089,828.624816800002,None,,,,,,,,,,,,,,,,,,,,,,,,,,,,,,001,2022-10-22_16h23.27.811,test9,2022.2.4,59.952721328762756,
,,,,,,,,2,nBack2Cond.xlsx,121,3,0.2,0.2,None,2,171,,,,,,,,,,,,,0,1,1,1,0,51,51,51,,,,,,,,,,,,,,,,,,,,,,,,,,,,,,,,,,,,,,,,,828.642649800051,828.642649800051,828.642649800051,828.642649800051,828.642649800051,828.642649800051,828.642649800051,828.642649800051,828.642649800051,828.642649800051,829.624614099972,829.6579642000142,830.6245074998587,None,,,,,,,,,,,,,,,,,,,,,,,,,,,,,,001,2022-10-22_16h23.27.811,test9,2022.2.4,59.952721328762756,
,,,,,,,,2,nBack2Cond.xlsx,121,1,-0.2,0.2,space,2,172,,,,,,,,,,,,,0,1,1,1,0,52,52,52,,,,,,,,,,,,,,,,,,,,,,,,,,,,,,,,,,,,,,,,,830.6421419000253,830.6421419000253,830.6421419000253,830.6421419000253,830.6421419000253,830.6421419000253,830.6421419000253,830.6421419000253,830.6421419000253,830.6421419000253,831.624324799981,831.6575873000547,832.6242519998923,space,0.5311862002126873,,,,,,,,,,,,,,,,,,,,,,,,,,,,,001,2022-10-22_16h23.27.811,test9,2022.2.4,59.952721328762756,
,,,,,,,,2,nBack2Cond.xlsx,121,2,0,0.2,None,2,173,,,,,,,,,,,,,0,1,1,1,0,53,53,53,,,,,,,,,,,,,,,,,,,,,,,,,,,,,,,,,,,,,,,,,832.6422753999941,832.6422753999941,832.6422753999941,832.6422753999941,832.6422753999941,832.6422753999941,832.6422753999941,832.6422753999941,832.6422753999941,832.6422753999941,833.6240446998272,833.6574021000415,834.6239451998845,None,,,,,,,,,,,,,,,,,,,,,,,,,,,,,,001,2022-10-22_16h23.27.811,test9,2022.2.4,59.952721328762756,
,,,,,,,,2,nBack2Cond.xlsx,121,1,-0.2,0.2,space,2,174,,,,,,,,,,,,,0,1,1,1,0,54,54,54,,,,,,,,,,,,,,,,,,,,,,,,,,,,,,,,,,,,,,,,,834.6405996999238,834.6405996999238,834.6405996999238,834.6405996999238,834.6405996999238,834.6405996999238,834.6405996999238,834.6405996999238,834.6405996999238,834.6405996999238,835.6239483999088,835.6403570000548,836.6235886998475,None,,,,,,,,,,,,,,,,,,,,,,,,,,,,,,001,2022-10-22_16h23.27.811,test9,2022.2.4,59.952721328762756,
,,,,,,,,2,nBack2Cond.xlsx,121,1,-0.2,0.2,None,2,175,,,,,,,,,,,,,0,1,1,1,0,55,55,55,,,,,,,,,,,,,,,,,,,,,,,,,,,,,,,,,,,,,,,,,836.6404335999396,836.6404335999396,836.6404335999396,836.6404335999396,836.6404335999396,836.6404335999396,836.6404335999396,836.6404335999396,836.6404335999396,836.6404335999396,837.6249235998839,837.640279199928,,None,,,,,,,,,,,,,,,,,,,,,,,,,,,,,,001,2022-10-22_16h23.27.811,test9,2022.2.4,59.952721328762756,
,,,,,,,,2,nBack2Cond.xlsx,121,7,-0.2,-0.2,None,2,176,,,,,,,,,,,,,0,1,1,1,0,56,56,56,,,,,,,,,,,,,,,,,,,,,,,,,,,,,,,,,,,,,,,,,838.6417940000538,838.6417940000538,838.6417940000538,838.6417940000538,838.6417940000538,838.6417940000538,838.6417940000538,838.6417940000538,838.6417940000538,838.6417940000538,839.6234164999332,839.6565171999391,840.6232059998438,None,,,,,,,,,,,,,,,,,,,,,,,,,,,,,,001,2022-10-22_16h23.27.811,test9,2022.2.4,59.952721328762756,
,,,,,,,,2,nBack2Cond.xlsx,121,2,0,0.2,None,2,177,,,,,,,,,,,,,0,1,1,1,0,57,57,57,,,,,,,,,,,,,,,,,,,,,,,,,,,,,,,,,,,,,,,,,840.6415192000568,840.6415192000568,840.6415192000568,840.6415192000568,840.6415192000568,840.6415192000568,840.6415192000568,840.6415192000568,840.6415192000568,840.6415192000568,841.6230297000147,841.6564422999509,842.6229884000495,None,,,,,,,,,,,,,,,,,,,,,,,,,,,,,,001,2022-10-22_16h23.27.811,test9,2022.2.4,59.952721328762756,
,,,,,,,,2,nBack2Cond.xlsx,121,7,-0.2,-0.2,space,2,178,,,,,,,,,,,,,0,1,1,1,0,58,58,58,,,,,,,,,,,,,,,,,,,,,,,,,,,,,,,,,,,,,,,,,842.6459750998765,842.6459750998765,842.6459750998765,842.6459750998765,842.6459750998765,842.6459750998765,842.6459750998765,842.6459750998765,842.6459750998765,842.6459750998765,843.6230690998491,843.6561044999398,844.6226516999304,space,0.5198727000970393,,,,,,,,,,,,,,,,,,,,,,,,,,,,,001,2022-10-22_16h23.27.811,test9,2022.2.4,59.952721328762756,
,,,,,,,,2,nBack2Cond.xlsx,121,6,0.2,0,None,2,179,,,,,,,,,,,,,0,1,1,1,0,59,59,59,,,,,,,,,,,,,,,,,,,,,,,,,,,,,,,,,,,,,,,,,844.6394487998914,844.6394487998914,844.6394487998914,844.6394487998914,844.6394487998914,844.6394487998914,844.6394487998914,844.6394487998914,844.6394487998914,844.6394487998914,845.6225976999849,845.6392083000392,846.6224193999078,None,,,,,,,,,,,,,,,,,,,,,,,,,,,,,,001,2022-10-22_16h23.27.811,test9,2022.2.4,59.952721328762756,
,,,,,,,,2,nBack2Cond.xlsx,121,6,0.2,0,None,2,180,,,,,,,,,,,,,0,1,1,1,0,60,60,60,,,,,,,,,,,,,,,,,,,,,,,,,,,,,,,,,,,,,,,,,846.6408038998488,846.6408038998488,846.6408038998488,846.6408038998488,846.6408038998488,846.6408038998488,846.6408038998488,846.6408038998488,846.6408038998488,846.6408038998488,847.62222749996,847.6556474999525,848.622149999952,None,,,,,,,,,,,,,,,,,,,,,,,,,,,,,,001,2022-10-22_16h23.27.811,test9,2022.2.4,59.952721328762756,
,,,,,,,,2,nBack2Cond.xlsx,121,7,-0.2,-0.2,None,2,181,,,,,,,,,,,,,0,1,1,1,0,61,61,61,,,,,,,,,,,,,,,,,,,,,,,,,,,,,,,,,,,,,,,,,848.6403856999241,848.6403856999241,848.6403856999241,848.6403856999241,848.6403856999241,848.6403856999241,848.6403856999241,848.6403856999241,848.6403856999241,848.6403856999241,849.6220890998375,849.6552629999351,850.6219170999248,None,,,,,,,,,,,,,,,,,,,,,,,,,,,,,,001,2022-10-22_16h23.27.811,test9,2022.2.4,59.952721328762756,
,,,,,,,,2,nBack2Cond.xlsx,121,2,0,0.2,None,2,182,,,,,,,,,,,,,0,1,1,1,0,62,62,62,,,,,,,,,,,,,,,,,,,,,,,,,,,,,,,,,,,,,,,,,850.6405817999039,850.6405817999039,850.6405817999039,850.6405817999039,850.6405817999039,850.6405817999039,850.6405817999039,850.6405817999039,850.6405817999039,850.6405817999039,851.6086530999746,851.6551948999986,852.6216712999158,None,,,,,,,,,,,,,,,,,,,,,,,,,,,,,,001,2022-10-22_16h23.27.811,test9,2022.2.4,59.952721328762756,
,,,,,,,,2,nBack2Cond.xlsx,121,7,-0.2,-0.2,space,2,183,,,,,,,,,,,,,0,1,1,1,0,63,63,63,,,,,,,,,,,,,,,,,,,,,,,,,,,,,,,,,,,,,,,,,852.6396598999854,852.6396598999854,852.6396598999854,852.6396598999854,852.6396598999854,852.6396598999854,852.6396598999854,852.6396598999854,852.6396598999854,852.6396598999854,853.6215407999698,853.6546990999486,854.6213430999778,space,0.6267309000249952,,,,,,,,,,,,,,,,,,,,,,,,,,,,,001,2022-10-22_16h23.27.811,test9,2022.2.4,59.952721328762756,
,,,,,,,,2,nBack2Cond.xlsx,121,1,-0.2,0.2,None,2,184,,,,,,,,,,,,,0,1,1,1,0,64,64,64,,,,,,,,,,,,,,,,,,,,,,,,,,,,,,,,,,,,,,,,,854.6392899998464,854.6392899998464,854.6392899998464,854.6392899998464,854.6392899998464,854.6392899998464,854.6392899998464,854.6392899998464,854.6392899998464,854.6392899998464,855.6211514000315,855.6546564998571,856.6210145999212,None,,,,,,,,,,,,,,,,,,,,,,,,,,,,,,001,2022-10-22_16h23.27.811,test9,2022.2.4,59.952721328762756,
,,,,,,,,2,nBack2Cond.xlsx,121,1,-0.2,0.2,None,2,185,,,,,,,,,,,,,0,1,1,1,0,65,65,65,,,,,,,,,,,,,,,,,,,,,,,,,,,,,,,,,,,,,,,,,856.6384723000228,856.6384723000228,856.6384723000228,856.6384723000228,856.6384723000228,856.6384723000228,856.6384723000228,856.6384723000228,856.6384723000228,856.6384723000228,857.6210020999424,857.6375505998731,858.6209155998658,None,,,,,,,,,,,,,,,,,,,,,,,,,,,,,,001,2022-10-22_16h23.27.811,test9,2022.2.4,59.952721328762756,
,,,,,,,,2,nBack2Cond.xlsx,121,2,0,0.2,None,2,186,,,,,,,,,,,,,0,1,1,1,0,66,66,66,,,,,,,,,,,,,,,,,,,,,,,,,,,,,,,,,,,,,,,,,858.6380308000371,858.6380308000371,858.6380308000371,858.6380308000371,858.6380308000371,858.6380308000371,858.6380308000371,858.6380308000371,858.6380308000371,858.6380308000371,859.6208116998896,859.6373455999419,860.6207036999986,None,,,,,,,,,,,,,,,,,,,,,,,,,,,,,,001,2022-10-22_16h23.27.811,test9,2022.2.4,59.952721328762756,
