eotrial,eocinstr,eocmarker1,eocmarker2,eocmarker3,eocmarker4,itemnumber,itemtext,nbackInstruction,condsFile,nbackmarker1,square,loc1,loc2,corrAns,trialsNum,trialNum,eoecloop.thisRepN,eoecloop.thisTrialN,eoecloop.thisN,eoecloop.thisIndex,wakeup.thisRepN,wakeup.thisTrialN,wakeup.thisN,wakeup.thisIndex,questions.thisRepN,questions.thisTrialN,questions.thisN,questions.thisIndex,nb_taskloop.thisRepN,nb_taskloop.thisTrialN,nb_taskloop.thisN,nb_taskloop.thisIndex,nb_trials.thisRepN,nb_trials.thisTrialN,nb_trials.thisN,nb_trials.thisIndex,key_resp_3.started,text_4.started,mouse_2.started,h_eoec.started,key_resp_3.keys,key_resp_3.rt,mouse_2.x,mouse_2.y,mouse_2.leftButton,mouse_2.midButton,mouse_2.rightButton,text_2.started,key_resp.started,key_resp.keys,text_8.started,key_resp_10.started,key_resp_10.keys,img_whte.started,img_black.started,text_5.started,key_resp_4.started,mouse.started,h_arsq.started,key_resp_4.keys,key_resp_4.rt,mouse.x,mouse.y,mouse.leftButton,mouse.midButton,mouse.rightButton,slider.started,text.started,key_resp_9.started,slider.response,slider.rt,key_resp_9.keys,instrText.started,h_nback.started,instrResp.started,instrImg.started,trialResp.started,trialSquare.started,gridLine1.started,gridLine2.started,gridLine3.started,gridLine4.started,gridLine5.started,gridLine6.started,gridLine7.started,gridLine8.started,trialFix.started,trialSquare.stopped,trialFix.stopped,trialResp.keys,trialResp.rt,trialResp.stopped,gridLine1.stopped,gridLine2.stopped,gridLine3.stopped,gridLine4.stopped,gridLine5.stopped,gridLine6.stopped,gridLine7.stopped,gridLine8.stopped,endText.started,key_resp_5.started,key_resp_5.keys,key_resp_5.rt,text_6.started,key_resp_6.started,h_movie.started,key_resp_6.keys,key_resp_6.rt,key_resp_8.started,movie.started,key_resp_8.keys,key_resp_8.rt,text_7.started,key_resp_7.started,text_7.stopped,key_resp_7.stopped,key_resp_7.keys,participant,session,date,expName,psychopyVersion,frameRate,
,,,,,,,,,,,,,,,,,,,,,,,,,,,,,,,,,,,,,136.53355199983343,136.53355199983343,3.2899901270866394e-05,136.53355199983343,space,126.47307449998334,,,,,,,,,,,,,,,,,,,,,,,,,,,,,,,,,,,,,,,,,,,,,,,,,,,,,,,,,,,,,,,,,,,,,,,,,,,,,,001,2022-10-22_17h10.25.999,test9,2022.2.4,60.16959403426891,
,,,,,,,,,,,,,,,,,,,,,,,,,,,,,,,,,,,,,,,,,,,0.887962962962963,0.2898148148148148,0,0,0,,,,,,,,,,,,,,,,,,,,,,,,,,,,,,,,,,,,,,,,,,,,,,,,,,,,,,,,,,,,,,,,,,,,,,,,,001,2022-10-22_17h10.25.999,test9,2022.2.4,60.16959403426891,
1,eyes open,11,12,13,14,,,,,,,,,,,,0,0,0,0,,,,,,,,,,,,,,,,,,,,,,,,,,,,263.0479693999514,263.0479693999514,None,265.04216469987296,265.04216469987296,None,,,,,,,,,,,,,,,,,,,,,,,,,,,,,,,,,,,,,,,,,,,,,,,,,,,,,,,,,,,,,,,,,,,001,2022-10-22_17h10.25.999,test9,2022.2.4,60.16959403426891,
2,eyes closed,21,22,23,24,,,,,,,,,,,,0,1,1,1,,,,,,,,,,,,,,,,,,,,,,,,,,,,445.04254399985075,445.04254399985075,None,447.0350591999013,447.0350591999013,None,,,,,,,,,,,,,,,,,,,,,,,,,,,,,,,,,,,,,,,,,,,,,,,,,,,,,,,,,,,,,,,,,,,001,2022-10-22_17h10.25.999,test9,2022.2.4,60.16959403426891,
,,,,,,,,,,,,,,,,,,,,,0,0,0,0,,,,,,,,,,,,,,,,,,,,,,,,,,,,,,627.0449516000226,627.244912999915,,,,,,,,,,,,,,,,,,,,,,,,,,,,,,,,,,,,,,,,,,,,,,,,,,,,,,,,,,,,,,,,,001,2022-10-22_17h10.25.999,test9,2022.2.4,60.16959403426891,
,,,,,,,,,,,,,,,,,,,,,1,0,1,0,,,,,,,,,,,,,,,,,,,,,,,,,,,,,,627.4448594998103,627.6450437998865,,,,,,,,,,,,,,,,,,,,,,,,,,,,,,,,,,,,,,,,,,,,,,,,,,,,,,,,,,,,,,,,,001,2022-10-22_17h10.25.999,test9,2022.2.4,60.16959403426891,
,,,,,,,,,,,,,,,,,,,,,2,0,2,0,,,,,,,,,,,,,,,,,,,,,,,,,,,,,,627.8449440998957,628.0449828000274,,,,,,,,,,,,,,,,,,,,,,,,,,,,,,,,,,,,,,,,,,,,,,,,,,,,,,,,,,,,,,,,,001,2022-10-22_17h10.25.999,test9,2022.2.4,60.16959403426891,
,,,,,,,,,,,,,,,,,,,,,3,0,3,0,,,,,,,,,,,,,,,,,,,,,,,,,,,,,,628.2449372999836,628.4448989999946,,,,,,,,,,,,,,,,,,,,,,,,,,,,,,,,,,,,,,,,,,,,,,,,,,,,,,,,,,,,,,,,,001,2022-10-22_17h10.25.999,test9,2022.2.4,60.16959403426891,
,,,,,,,,,,,,,,,,,,,,,,,,,,,,,,,,,,,,,,,,,,,,,,,,,,,,,,,,628.6452055999544,628.6452055999544,0.015612800372764468,628.6452055999544,space,3.993426999775693,,,,,,,,,,,,,,,,,,,,,,,,,,,,,,,,,,,,,,,,,,,,,,,,,,,,,,,,,,,001,2022-10-22_17h10.25.999,test9,2022.2.4,60.16959403426891,
,,,,,,,,,,,,,,,,,,,,,,,,,,,,,,,,,,,,,,,,,,,,,,,,,,,,,,,,,,,,,,0.887962962962963,0.2898148148148148,0,0,0,,,,,,,,,,,,,,,,,,,,,,,,,,,,,,,,,,,,,,,,,,,,,,,,,,,,,,001,2022-10-22_17h10.25.999,test9,2022.2.4,60.16959403426891,
,,,,,,5,I placed myself in other peoples shoes,,,,,,,,,,,,,,,,,,0,0,0,4,,,,,,,,,,,,,,,,,,,,,,,,,,,,,,,,,,,,,,,632.7349774998147,632.7349774998147,632.7349774998147,2.0,2.8604773997794837,None,,,,,,,,,,,,,,,,,,,,,,,,,,,,,,,,,,,,,,,,,,,,,,,,001,2022-10-22_17h10.25.999,test9,2022.2.4,60.16959403426891,
,,,,,,18,I felt happy,,,,,,,,,,,,,,,,,,0,1,1,17,,,,,,,,,,,,,,,,,,,,,,,,,,,,,,,,,,,,,,,635.7773775998503,635.7773775998503,635.7773775998503,3.0,2.163518799934536,None,,,,,,,,,,,,,,,,,,,,,,,,,,,,,,,,,,,,,,,,,,,,,,,,001,2022-10-22_17h10.25.999,test9,2022.2.4,60.16959403426891,
,,,,,,34,I had my eyes closed,,,,,,,,,,,,,,,,,,0,2,2,33,,,,,,,,,,,,,,,,,,,,,,,,,,,,,,,,,,,,,,,638.1572084999643,638.1572084999643,638.1572084999643,4.0,2.2450684001669288,None,,,,,,,,,,,,,,,,,,,,,,,,,,,,,,,,,,,,,,,,,,,,,,,,001,2022-10-22_17h10.25.999,test9,2022.2.4,60.16959403426891,
,,,,,,28,I had silent conversations,,,,,,,,,,,,,,,,,,0,3,3,27,,,,,,,,,,,,,,,,,,,,,,,,,,,,,,,,,,,,,,,640.6104574999772,640.6104574999772,640.6104574999772,4.0,2.4412994999438524,None,,,,,,,,,,,,,,,,,,,,,,,,,,,,,,,,,,,,,,,,,,,,,,,,001,2022-10-22_17h10.25.999,test9,2022.2.4,60.16959403426891,
,,,,,,4,I thought about others,,,,,,,,,,,,,,,,,,0,4,4,3,,,,,,,,,,,,,,,,,,,,,,,,,,,,,,,,,,,,,,,643.2831460998859,643.2831460998859,643.2831460998859,3.0,1.1461243000812829,None,,,,,,,,,,,,,,,,,,,,,,,,,,,,,,,,,,,,,,,,,,,,,,,,001,2022-10-22_17h10.25.999,test9,2022.2.4,60.16959403426891,
,,,,,,17,I felt relaxed,,,,,,,,,,,,,,,,,,0,5,5,16,,,,,,,,,,,,,,,,,,,,,,,,,,,,,,,,,,,,,,,644.6387666999362,644.6387666999362,644.6387666999362,2.0,1.6677796998992562,None,,,,,,,,,,,,,,,,,,,,,,,,,,,,,,,,,,,,,,,,,,,,,,,,001,2022-10-22_17h10.25.999,test9,2022.2.4,60.16959403426891,
,,,,,,31,I had difficulty remembering my thoughts,,,,,,,,,,,,,,,,,,0,6,6,30,,,,,,,,,,,,,,,,,,,,,,,,,,,,,,,,,,,,,,,646.5231239998247,646.5231239998247,646.5231239998247,2.0,2.3168890001252294,None,,,,,,,,,,,,,,,,,,,,,,,,,,,,,,,,,,,,,,,,,,,,,,,,001,2022-10-22_17h10.25.999,test9,2022.2.4,60.16959403426891,
,,,,,,15,I had difficulty staying awake,,,,,,,,,,,,,,,,,,0,7,7,14,,,,,,,,,,,,,,,,,,,,,,,,,,,,,,,,,,,,,,,649.0723297998775,649.0723297998775,649.0723297998775,2.0,1.8515771001111716,None,,,,,,,,,,,,,,,,,,,,,,,,,,,,,,,,,,,,,,,,,,,,,,,,001,2022-10-22_17h10.25.999,test9,2022.2.4,60.16959403426891,
,,,,,,23,I thought about my health,,,,,,,,,,,,,,,,,,0,8,8,22,,,,,,,,,,,,,,,,,,,,,,,,,,,,,,,,,,,,,,,651.1303288999479,651.1303288999479,651.1303288999479,2.0,2.5191597999073565,None,,,,,,,,,,,,,,,,,,,,,,,,,,,,,,,,,,,,,,,,,,,,,,,,001,2022-10-22_17h10.25.999,test9,2022.2.4,60.16959403426891,
,,,,,,35,I was able to rate the statements,,,,,,,,,,,,,,,,,,0,9,9,34,,,,,,,,,,,,,,,,,,,,,,,,,,,,,,,,,,,,,,,653.8656226999592,653.8656226999592,653.8656226999592,4.0,2.0325809998903424,None,,,,,,,,,,,,,,,,,,,,,,,,,,,,,,,,,,,,,,,,,,,,,,,,001,2022-10-22_17h10.25.999,test9,2022.2.4,60.16959403426891,
,,,,,,10,I thought about things I need to do,,,,,,,,,,,,,,,,,,0,10,10,9,,,,,,,,,,,,,,,,,,,,,,,,,,,,,,,,,,,,,,,656.1165749998763,656.1165749998763,656.1165749998763,3.0,2.4398874000180513,None,,,,,,,,,,,,,,,,,,,,,,,,,,,,,,,,,,,,,,,,,,,,,,,,001,2022-10-22_17h10.25.999,test9,2022.2.4,60.16959403426891,
,,,,,,13,I felt tired,,,,,,,,,,,,,,,,,,0,11,11,12,,,,,,,,,,,,,,,,,,,,,,,,,,,,,,,,,,,,,,,658.779422899941,658.779422899941,658.779422899941,3.0,1.5972758000716567,None,,,,,,,,,,,,,,,,,,,,,,,,,,,,,,,,,,,,,,,,,,,,,,,,001,2022-10-22_17h10.25.999,test9,2022.2.4,60.16959403426891,
,,,,,,2,I had rapidly switching thoughts,,,,,,,,,,,,,,,,,,0,12,12,1,,,,,,,,,,,,,,,,,,,,,,,,,,,,,,,,,,,,,,,660.5848758998327,660.5848758998327,660.5848758998327,4.0,2.082285000011325,None,,,,,,,,,,,,,,,,,,,,,,,,,,,,,,,,,,,,,,,,,,,,,,,,001,2022-10-22_17h10.25.999,test9,2022.2.4,60.16959403426891,
,,,,,,30,I imagined talking to myself,,,,,,,,,,,,,,,,,,0,13,13,29,,,,,,,,,,,,,,,,,,,,,,,,,,,,,,,,,,,,,,,662.8886305999476,662.8886305999476,662.8886305999476,3.0,1.3977048001252115,None,,,,,,,,,,,,,,,,,,,,,,,,,,,,,,,,,,,,,,,,,,,,,,,,001,2022-10-22_17h10.25.999,test9,2022.2.4,60.16959403426891,
,,,,,,24,I felt pain,,,,,,,,,,,,,,,,,,0,14,14,23,,,,,,,,,,,,,,,,,,,,,,,,,,,,,,,,,,,,,,,664.5063977998216,664.5063977998216,664.5063977998216,4.0,2.0129875999409705,None,,,,,,,,,,,,,,,,,,,,,,,,,,,,,,,,,,,,,,,,,,,,,,,,001,2022-10-22_17h10.25.999,test9,2022.2.4,60.16959403426891,
,,,,,,19,I was conscious of my body,,,,,,,,,,,,,,,,,,0,15,15,18,,,,,,,,,,,,,,,,,,,,,,,,,,,,,,,,,,,,,,,666.7426171998959,666.7426171998959,666.7426171998959,3.0,1.2580353000666946,None,,,,,,,,,,,,,,,,,,,,,,,,,,,,,,,,,,,,,,,,,,,,,,,,001,2022-10-22_17h10.25.999,test9,2022.2.4,60.16959403426891,
,,,,,,26,I thought in images,,,,,,,,,,,,,,,,,,0,16,16,25,,,,,,,,,,,,,,,,,,,,,,,,,,,,,,,,,,,,,,,668.2212867999915,668.2212867999915,668.2212867999915,3.0,4.001602899981663,None,,,,,,,,,,,,,,,,,,,,,,,,,,,,,,,,,,,,,,,,,,,,,,,,001,2022-10-22_17h10.25.999,test9,2022.2.4,60.16959403426891,
,,,,,,1,I had busy thoughts,,,,,,,,,,,,,,,,,,0,17,17,0,,,,,,,,,,,,,,,,,,,,,,,,,,,,,,,,,,,,,,,672.4418726998847,672.4418726998847,672.4418726998847,4.0,2.2082106000743806,None,,,,,,,,,,,,,,,,,,,,,,,,,,,,,,,,,,,,,,,,,,,,,,,,001,2022-10-22_17h10.25.999,test9,2022.2.4,60.16959403426891,
,,,,,,9,I thought about myself,,,,,,,,,,,,,,,,,,0,18,18,8,,,,,,,,,,,,,,,,,,,,,,,,,,,,,,,,,,,,,,,674.8647814998403,674.8647814998403,674.8647814998403,3.0,1.1161974999122322,None,,,,,,,,,,,,,,,,,,,,,,,,,,,,,,,,,,,,,,,,,,,,,,,,001,2022-10-22_17h10.25.999,test9,2022.2.4,60.16959403426891,
,,,,,,14,I felt sleepy,,,,,,,,,,,,,,,,,,0,19,19,13,,,,,,,,,,,,,,,,,,,,,,,,,,,,,,,,,,,,,,,676.2029649999458,676.2029649999458,676.2029649999458,2.0,1.5768673999700695,None,,,,,,,,,,,,,,,,,,,,,,,,,,,,,,,,,,,,,,,,,,,,,,,,001,2022-10-22_17h10.25.999,test9,2022.2.4,60.16959403426891,
,,,,,,21,I thought about my heartbeat,,,,,,,,,,,,,,,,,,0,20,20,20,,,,,,,,,,,,,,,,,,,,,,,,,,,,,,,,,,,,,,,677.9948439998552,677.9948439998552,677.9948439998552,2.0,1.4971747000236064,None,,,,,,,,,,,,,,,,,,,,,,,,,,,,,,,,,,,,,,,,,,,,,,,,001,2022-10-22_17h10.25.999,test9,2022.2.4,60.16959403426891,
,,,,,,22,I felt ill,,,,,,,,,,,,,,,,,,0,21,21,21,,,,,,,,,,,,,,,,,,,,,,,,,,,,,,,,,,,,,,,679.7073666998185,679.7073666998185,679.7073666998185,3.0,2.3666871001478285,None,,,,,,,,,,,,,,,,,,,,,,,,,,,,,,,,,,,,,,,,,,,,,,,,001,2022-10-22_17h10.25.999,test9,2022.2.4,60.16959403426891,
,,,,,,12,I thought about the future,,,,,,,,,,,,,,,,,,0,22,22,11,,,,,,,,,,,,,,,,,,,,,,,,,,,,,,,,,,,,,,,682.2950338998344,682.2950338998344,682.2950338998344,4.0,1.2545124001335353,None,,,,,,,,,,,,,,,,,,,,,,,,,,,,,,,,,,,,,,,,,,,,,,,,001,2022-10-22_17h10.25.999,test9,2022.2.4,60.16959403426891,
,,,,,,3,I had difficulty holding on to my thoughts,,,,,,,,,,,,,,,,,,0,23,23,2,,,,,,,,,,,,,,,,,,,,,,,,,,,,,,,,,,,,,,,683.7645266000181,683.7645266000181,683.7645266000181,3.0,2.190726999891922,None,,,,,,,,,,,,,,,,,,,,,,,,,,,,,,,,,,,,,,,,,,,,,,,,001,2022-10-22_17h10.25.999,test9,2022.2.4,60.16959403426891,
,,,,,,6,I thought about people I like,,,,,,,,,,,,,,,,,,0,24,24,5,,,,,,,,,,,,,,,,,,,,,,,,,,,,,,,,,,,,,,,686.1829182000365,686.1829182000365,686.1829182000365,4.0,1.7023482997901738,None,,,,,,,,,,,,,,,,,,,,,,,,,,,,,,,,,,,,,,,,,,,,,,,,001,2022-10-22_17h10.25.999,test9,2022.2.4,60.16959403426891,
,,,,,,20,I thought about my breathing,,,,,,,,,,,,,,,,,,0,25,25,19,,,,,,,,,,,,,,,,,,,,,,,,,,,,,,,,,,,,,,,688.1130716998596,688.1130716998596,688.1130716998596,4.0,1.354388500098139,None,,,,,,,,,,,,,,,,,,,,,,,,,,,,,,,,,,,,,,,,,,,,,,,,001,2022-10-22_17h10.25.999,test9,2022.2.4,60.16959403426891,
,,,,,,16,I felt comfortable,,,,,,,,,,,,,,,,,,0,26,26,15,,,,,,,,,,,,,,,,,,,,,,,,,,,,,,,,,,,,,,,689.689980499912,689.689980499912,689.689980499912,3.0,1.3008536999113858,None,,,,,,,,,,,,,,,,,,,,,,,,,,,,,,,,,,,,,,,,,,,,,,,,001,2022-10-22_17h10.25.999,test9,2022.2.4,60.16959403426891,
,,,,,,27,I pictured places,,,,,,,,,,,,,,,,,,0,27,27,26,,,,,,,,,,,,,,,,,,,,,,,,,,,,,,,,,,,,,,,691.1924279998057,691.1924279998057,691.1924279998057,2.0,1.9525176000315696,None,,,,,,,,,,,,,,,,,,,,,,,,,,,,,,,,,,,,,,,,,,,,,,,,001,2022-10-22_17h10.25.999,test9,2022.2.4,60.16959403426891,
,,,,,,33,I felt motivated to participate,,,,,,,,,,,,,,,,,,0,28,28,32,,,,,,,,,,,,,,,,,,,,,,,,,,,,,,,,,,,,,,,693.366766099818,693.366766099818,693.366766099818,3.0,1.73565229983069,None,,,,,,,,,,,,,,,,,,,,,,,,,,,,,,,,,,,,,,,,,,,,,,,,001,2022-10-22_17h10.25.999,test9,2022.2.4,60.16959403426891,
,,,,,,7,I thought about my feelings,,,,,,,,,,,,,,,,,,0,29,29,6,,,,,,,,,,,,,,,,,,,,,,,,,,,,,,,,,,,,,,,695.3342136999127,695.3342136999127,695.3342136999127,3.0,1.8135959000792354,None,,,,,,,,,,,,,,,,,,,,,,,,,,,,,,,,,,,,,,,,,,,,,,,,001,2022-10-22_17h10.25.999,test9,2022.2.4,60.16959403426891,
,,,,,,25,I pictured events,,,,,,,,,,,,,,,,,,0,30,30,24,,,,,,,,,,,,,,,,,,,,,,,,,,,,,,,,,,,,,,,697.3616327999625,697.3616327999625,697.3616327999625,3.0,1.6467621000483632,None,,,,,,,,,,,,,,,,,,,,,,,,,,,,,,,,,,,,,,,,,,,,,,,,001,2022-10-22_17h10.25.999,test9,2022.2.4,60.16959403426891,
,,,,,,32,I had difficulty remembering my feelings,,,,,,,,,,,,,,,,,,0,31,31,31,,,,,,,,,,,,,,,,,,,,,,,,,,,,,,,,,,,,,,,699.2366269999184,699.2366269999184,699.2366269999184,2.0,1.8318610000424087,None,,,,,,,,,,,,,,,,,,,,,,,,,,,,,,,,,,,,,,,,,,,,,,,,001,2022-10-22_17h10.25.999,test9,2022.2.4,60.16959403426891,
,,,,,,29,I thought in words,,,,,,,,,,,,,,,,,,0,32,32,28,,,,,,,,,,,,,,,,,,,,,,,,,,,,,,,,,,,,,,,701.2772969999351,701.2772969999351,701.2772969999351,2.0,1.128622200107202,None,,,,,,,,,,,,,,,,,,,,,,,,,,,,,,,,,,,,,,,,,,,,,,,,001,2022-10-22_17h10.25.999,test9,2022.2.4,60.16959403426891,
,,,,,,8,I thought about my behavior,,,,,,,,,,,,,,,,,,0,33,33,7,,,,,,,,,,,,,,,,,,,,,,,,,,,,,,,,,,,,,,,702.6295779999346,702.6295779999346,702.6295779999346,3.0,1.261932299938053,None,,,,,,,,,,,,,,,,,,,,,,,,,,,,,,,,,,,,,,,,,,,,,,,,001,2022-10-22_17h10.25.999,test9,2022.2.4,60.16959403426891,
,,,,,,11,I thought about solving problems,,,,,,,,,,,,,,,,,,0,34,34,10,,,,,,,,,,,,,,,,,,,,,,,,,,,,,,,,,,,,,,,704.0987350000069,704.0987350000069,704.0987350000069,5.0,2.5469665999989957,None,,,,,,,,,,,,,,,,,,,,,,,,,,,,,,,,,,,,,,,,,,,,,,,,001,2022-10-22_17h10.25.999,test9,2022.2.4,60.16959403426891,
,,,,,,,,1,nBack1Cond.xlsx,111,6,0.2,0,None,1,1,,,,,,,,,,,,,0,0,0,0,0,0,0,0,,,,,,,,,,,,,,,,,,,,,,,,,,,,,,,,,,,,,706.9479166998062,706.9479166998062,706.9479166998062,706.9479166998062,715.2533551999368,715.2533551999368,715.2533551999368,715.2533551999368,715.2533551999368,715.2533551999368,715.2533551999368,715.2533551999368,715.2533551999368,715.2533551999368,716.2005556998774,716.2666515999008,717.1999182999134,None,,,,,,,,,,,,,,,,,,,,,,,,,,,,,,001,2022-10-22_17h10.25.999,test9,2022.2.4,60.16959403426891,
,,,,,,,,1,nBack1Cond.xlsx,111,6,0.2,0,space,1,2,,,,,,,,,,,,,0,0,0,0,0,1,1,1,,,,,,,,,,,,,,,,,,,,,,,,,,,,,,,,,,,,,,,,,717.2187624999788,717.2187624999788,717.2187624999788,717.2187624999788,717.2187624999788,717.2187624999788,717.2187624999788,717.2187624999788,717.2187624999788,717.2187624999788,718.1997952999081,718.2329651999753,719.1995355999097,space,0.6516213999129832,,,,,,,,,,,,,,,,,,,,,,,,,,,,,001,2022-10-22_17h10.25.999,test9,2022.2.4,60.16959403426891,
,,,,,,,,1,nBack1Cond.xlsx,111,2,0,0.2,None,1,3,,,,,,,,,,,,,0,0,0,0,0,2,2,2,,,,,,,,,,,,,,,,,,,,,,,,,,,,,,,,,,,,,,,,,719.217669100035,719.217669100035,719.217669100035,719.217669100035,719.217669100035,719.217669100035,719.217669100035,719.217669100035,719.217669100035,719.217669100035,720.1999702998437,720.232726499904,721.1994349998422,None,,,,,,,,,,,,,,,,,,,,,,,,,,,,,,001,2022-10-22_17h10.25.999,test9,2022.2.4,60.16959403426891,
,,,,,,,,1,nBack1Cond.xlsx,111,9,0.2,-0.2,None,1,4,,,,,,,,,,,,,0,0,0,0,0,3,3,3,,,,,,,,,,,,,,,,,,,,,,,,,,,,,,,,,,,,,,,,,721.2188361999579,721.2188361999579,721.2188361999579,721.2188361999579,721.2188361999579,721.2188361999579,721.2188361999579,721.2188361999579,721.2188361999579,721.2188361999579,722.1996235998813,722.233001699904,723.1990147999022,None,,,,,,,,,,,,,,,,,,,,,,,,,,,,,,001,2022-10-22_17h10.25.999,test9,2022.2.4,60.16959403426891,
,,,,,,,,1,nBack1Cond.xlsx,111,9,0.2,-0.2,space,1,5,,,,,,,,,,,,,0,0,0,0,0,4,4,4,,,,,,,,,,,,,,,,,,,,,,,,,,,,,,,,,,,,,,,,,723.2158842999488,723.2158842999488,723.2158842999488,723.2158842999488,723.2158842999488,723.2158842999488,723.2158842999488,723.2158842999488,723.2158842999488,723.2158842999488,724.1992658998352,724.2155030998401,725.1988358998206,space,0.53585259988904,,,,,,,,,,,,,,,,,,,,,,,,,,,,,001,2022-10-22_17h10.25.999,test9,2022.2.4,60.16959403426891,
,,,,,,,,1,nBack1Cond.xlsx,111,6,0.2,0,None,1,6,,,,,,,,,,,,,0,0,0,0,0,5,5,5,,,,,,,,,,,,,,,,,,,,,,,,,,,,,,,,,,,,,,,,,725.2167772999965,725.2167772999965,725.2167772999965,725.2167772999965,725.2167772999965,725.2167772999965,725.2167772999965,725.2167772999965,725.2167772999965,725.2167772999965,726.1987246000208,726.2331910999492,727.1986123998649,None,,,,,,,,,,,,,,,,,,,,,,,,,,,,,,001,2022-10-22_17h10.25.999,test9,2022.2.4,60.16959403426891,
,,,,,,,,1,nBack1Cond.xlsx,111,4,-0.2,0,None,1,7,,,,,,,,,,,,,0,0,0,0,0,6,6,6,,,,,,,,,,,,,,,,,,,,,,,,,,,,,,,,,,,,,,,,,727.2155188999604,727.2155188999604,727.2155188999604,727.2155188999604,727.2155188999604,727.2155188999604,727.2155188999604,727.2155188999604,727.2155188999604,727.2155188999604,728.1984905998688,728.2150140998419,729.1982807000168,None,,,,,,,,,,,,,,,,,,,,,,,,,,,,,,001,2022-10-22_17h10.25.999,test9,2022.2.4,60.16959403426891,
,,,,,,,,1,nBack1Cond.xlsx,111,3,0.2,0.2,None,1,8,,,,,,,,,,,,,0,0,0,0,0,7,7,7,,,,,,,,,,,,,,,,,,,,,,,,,,,,,,,,,,,,,,,,,729.216044700006,729.216044700006,729.216044700006,729.216044700006,729.216044700006,729.216044700006,729.216044700006,729.216044700006,729.216044700006,729.216044700006,730.1982844998129,730.2334986999631,731.1979035998229,None,,,,,,,,,,,,,,,,,,,,,,,,,,,,,,001,2022-10-22_17h10.25.999,test9,2022.2.4,60.16959403426891,
,,,,,,,,1,nBack1Cond.xlsx,111,3,0.2,0.2,space,1,9,,,,,,,,,,,,,0,0,0,0,0,8,8,8,,,,,,,,,,,,,,,,,,,,,,,,,,,,,,,,,,,,,,,,,731.2145922998898,731.2145922998898,731.2145922998898,731.2145922998898,731.2145922998898,731.2145922998898,731.2145922998898,731.2145922998898,731.2145922998898,731.2145922998898,732.1982552998234,732.2145326000173,733.1977299000137,space,0.7345044000539929,,,,,,,,,,,,,,,,,,,,,,,,,,,,,001,2022-10-22_17h10.25.999,test9,2022.2.4,60.16959403426891,
,,,,,,,,1,nBack1Cond.xlsx,111,8,0,-0.2,None,1,10,,,,,,,,,,,,,0,0,0,0,0,9,9,9,,,,,,,,,,,,,,,,,,,,,,,,,,,,,,,,,,,,,,,,,733.2145771998912,733.2145771998912,733.2145771998912,733.2145771998912,733.2145771998912,733.2145771998912,733.2145771998912,733.2145771998912,733.2145771998912,733.2145771998912,734.1999228999484,734.2154492998961,,None,,,,,,,,,,,,,,,,,,,,,,,,,,,,,,001,2022-10-22_17h10.25.999,test9,2022.2.4,60.16959403426891,
,,,,,,,,1,nBack1Cond.xlsx,111,1,-0.2,0.2,None,1,11,,,,,,,,,,,,,0,0,0,0,0,10,10,10,,,,,,,,,,,,,,,,,,,,,,,,,,,,,,,,,,,,,,,,,735.2166244999971,735.2166244999971,735.2166244999971,735.2166244999971,735.2166244999971,735.2166244999971,735.2166244999971,735.2166244999971,735.2166244999971,735.2166244999971,736.1973949000239,736.23063190002,737.1972300999332,None,,,,,,,,,,,,,,,,,,,,,,,,,,,,,,001,2022-10-22_17h10.25.999,test9,2022.2.4,60.16959403426891,
,,,,,,,,1,nBack1Cond.xlsx,111,2,0,0.2,None,1,12,,,,,,,,,,,,,0,0,0,0,0,11,11,11,,,,,,,,,,,,,,,,,,,,,,,,,,,,,,,,,,,,,,,,,737.2150504000019,737.2150504000019,737.2150504000019,737.2150504000019,737.2150504000019,737.2150504000019,737.2150504000019,737.2150504000019,737.2150504000019,737.2150504000019,738.1974150999449,738.2137384999078,739.1969405999407,None,,,,,,,,,,,,,,,,,,,,,,,,,,,,,,001,2022-10-22_17h10.25.999,test9,2022.2.4,60.16959403426891,
,,,,,,,,1,nBack1Cond.xlsx,111,4,-0.2,0,None,1,13,,,,,,,,,,,,,0,0,0,0,0,12,12,12,,,,,,,,,,,,,,,,,,,,,,,,,,,,,,,,,,,,,,,,,739.214974100003,739.214974100003,739.214974100003,739.214974100003,739.214974100003,739.214974100003,739.214974100003,739.214974100003,739.214974100003,739.214974100003,740.1969520999119,740.2301829999778,741.19662159984,None,,,,,,,,,,,,,,,,,,,,,,,,,,,,,,001,2022-10-22_17h10.25.999,test9,2022.2.4,60.16959403426891,
,,,,,,,,1,nBack1Cond.xlsx,111,4,-0.2,0,space,1,14,,,,,,,,,,,,,0,0,0,0,0,13,13,13,,,,,,,,,,,,,,,,,,,,,,,,,,,,,,,,,,,,,,,,,741.2143370998092,741.2143370998092,741.2143370998092,741.2143370998092,741.2143370998092,741.2143370998092,741.2143370998092,741.2143370998092,741.2143370998092,741.2143370998092,742.1965395000298,742.229938399978,743.1965061000083,space,0.6915468999650329,,,,,,,,,,,,,,,,,,,,,,,,,,,,,001,2022-10-22_17h10.25.999,test9,2022.2.4,60.16959403426891,
,,,,,,,,1,nBack1Cond.xlsx,111,8,0,-0.2,None,1,15,,,,,,,,,,,,,0,0,0,0,0,14,14,14,,,,,,,,,,,,,,,,,,,,,,,,,,,,,,,,,,,,,,,,,743.2141566998325,743.2141566998325,743.2141566998325,743.2141566998325,743.2141566998325,743.2141566998325,743.2141566998325,743.2141566998325,743.2141566998325,743.2141566998325,744.1963184999768,744.2304060999304,745.1961479999591,None,,,,,,,,,,,,,,,,,,,,,,,,,,,,,,001,2022-10-22_17h10.25.999,test9,2022.2.4,60.16959403426891,
,,,,,,,,1,nBack1Cond.xlsx,111,5,0,0,None,1,16,,,,,,,,,,,,,0,0,0,0,0,15,15,15,,,,,,,,,,,,,,,,,,,,,,,,,,,,,,,,,,,,,,,,,745.2137601999566,745.2137601999566,745.2137601999566,745.2137601999566,745.2137601999566,745.2137601999566,745.2137601999566,745.2137601999566,745.2137601999566,745.2137601999566,746.1969798998907,746.2130449998658,,None,,,,,,,,,,,,,,,,,,,,,,,,,,,,,,001,2022-10-22_17h10.25.999,test9,2022.2.4,60.16959403426891,
,,,,,,,,1,nBack1Cond.xlsx,111,5,0,0,space,1,17,,,,,,,,,,,,,0,0,0,0,0,16,16,16,,,,,,,,,,,,,,,,,,,,,,,,,,,,,,,,,,,,,,,,,747.2126813998912,747.2126813998912,747.2126813998912,747.2126813998912,747.2126813998912,747.2126813998912,747.2126813998912,747.2126813998912,747.2126813998912,747.2126813998912,748.196113999933,748.2124124998227,749.1957678999752,space,0.6737303999252617,,,,,,,,,,,,,,,,,,,,,,,,,,,,,001,2022-10-22_17h10.25.999,test9,2022.2.4,60.16959403426891,
,,,,,,,,1,nBack1Cond.xlsx,111,1,-0.2,0.2,None,1,18,,,,,,,,,,,,,0,0,0,0,0,17,17,17,,,,,,,,,,,,,,,,,,,,,,,,,,,,,,,,,,,,,,,,,749.2132388998289,749.2132388998289,749.2132388998289,749.2132388998289,749.2132388998289,749.2132388998289,749.2132388998289,749.2132388998289,749.2132388998289,749.2132388998289,750.1955363999587,750.2288977999706,751.195487999823,None,,,,,,,,,,,,,,,,,,,,,,,,,,,,,,001,2022-10-22_17h10.25.999,test9,2022.2.4,60.16959403426891,
,,,,,,,,1,nBack1Cond.xlsx,111,3,0.2,0.2,None,1,19,,,,,,,,,,,,,0,0,0,0,0,18,18,18,,,,,,,,,,,,,,,,,,,,,,,,,,,,,,,,,,,,,,,,,751.2122299999464,751.2122299999464,751.2122299999464,751.2122299999464,751.2122299999464,751.2122299999464,751.2122299999464,751.2122299999464,751.2122299999464,751.2122299999464,752.1952819998842,752.211888999911,753.1952368000057,None,,,,,,,,,,,,,,,,,,,,,,,,,,,,,,001,2022-10-22_17h10.25.999,test9,2022.2.4,60.16959403426891,
,,,,,,,,1,nBack1Cond.xlsx,111,6,0.2,0,None,1,20,,,,,,,,,,,,,0,0,0,0,0,19,19,19,,,,,,,,,,,,,,,,,,,,,,,,,,,,,,,,,,,,,,,,,753.2136013999116,753.2136013999116,753.2136013999116,753.2136013999116,753.2136013999116,753.2136013999116,753.2136013999116,753.2136013999116,753.2136013999116,753.2136013999116,754.1949588998687,754.2283779999707,755.194952199934,None,,,,,,,,,,,,,,,,,,,,,,,,,,,,,,001,2022-10-22_17h10.25.999,test9,2022.2.4,60.16959403426891,
,,,,,,,,1,nBack1Cond.xlsx,111,1,-0.2,0.2,None,1,21,,,,,,,,,,,,,0,0,0,0,0,20,20,20,,,,,,,,,,,,,,,,,,,,,,,,,,,,,,,,,,,,,,,,,755.2126398999244,755.2126398999244,755.2126398999244,755.2126398999244,755.2126398999244,755.2126398999244,755.2126398999244,755.2126398999244,755.2126398999244,755.2126398999244,756.1948812999763,756.228063199902,757.1947609998751,None,,,,,,,,,,,,,,,,,,,,,,,,,,,,,,001,2022-10-22_17h10.25.999,test9,2022.2.4,60.16959403426891,
,,,,,,,,1,nBack1Cond.xlsx,111,1,-0.2,0.2,space,1,22,,,,,,,,,,,,,0,0,0,0,0,21,21,21,,,,,,,,,,,,,,,,,,,,,,,,,,,,,,,,,,,,,,,,,757.2124455999583,757.2124455999583,757.2124455999583,757.2124455999583,757.2124455999583,757.2124455999583,757.2124455999583,757.2124455999583,757.2124455999583,757.2124455999583,758.1955541998614,758.2118746999186,,space,0.6610161000862718,,,,,,,,,,,,,,,,,,,,,,,,,,,,,001,2022-10-22_17h10.25.999,test9,2022.2.4,60.16959403426891,
,,,,,,,,1,nBack1Cond.xlsx,111,1,-0.2,0.2,space,1,23,,,,,,,,,,,,,0,0,0,0,0,22,22,22,,,,,,,,,,,,,,,,,,,,,,,,,,,,,,,,,,,,,,,,,759.2111471998505,759.2111471998505,759.2111471998505,759.2111471998505,759.2111471998505,759.2111471998505,759.2111471998505,759.2111471998505,759.2111471998505,759.2111471998505,760.1943263998255,760.2111629999708,761.1942143000197,space,0.6994783000554889,,,,,,,,,,,,,,,,,,,,,,,,,,,,,001,2022-10-22_17h10.25.999,test9,2022.2.4,60.16959403426891,
,,,,,,,,1,nBack1Cond.xlsx,111,3,0.2,0.2,None,1,24,,,,,,,,,,,,,0,0,0,0,0,23,23,23,,,,,,,,,,,,,,,,,,,,,,,,,,,,,,,,,,,,,,,,,761.2119365998078,761.2119365998078,761.2119365998078,761.2119365998078,761.2119365998078,761.2119365998078,761.2119365998078,761.2119365998078,761.2119365998078,761.2119365998078,762.1941094000358,762.2273044998292,763.1940315000247,None,,,,,,,,,,,,,,,,,,,,,,,,,,,,,,001,2022-10-22_17h10.25.999,test9,2022.2.4,60.16959403426891,
,,,,,,,,1,nBack1Cond.xlsx,111,2,0,0.2,None,1,25,,,,,,,,,,,,,0,0,0,0,0,24,24,24,,,,,,,,,,,,,,,,,,,,,,,,,,,,,,,,,,,,,,,,,763.210658499971,763.210658499971,763.210658499971,763.210658499971,763.210658499971,763.210658499971,763.210658499971,763.210658499971,763.210658499971,763.210658499971,764.193820099812,764.2103398998734,765.1937325999606,None,,,,,,,,,,,,,,,,,,,,,,,,,,,,,,001,2022-10-22_17h10.25.999,test9,2022.2.4,60.16959403426891,
,,,,,,,,1,nBack1Cond.xlsx,111,1,-0.2,0.2,None,1,26,,,,,,,,,,,,,0,0,0,0,0,25,25,25,,,,,,,,,,,,,,,,,,,,,,,,,,,,,,,,,,,,,,,,,765.2104044998996,765.2104044998996,765.2104044998996,765.2104044998996,765.2104044998996,765.2104044998996,765.2104044998996,765.2104044998996,765.2104044998996,765.2104044998996,766.193620899925,766.210181399947,767.193453699816,None,,,,,,,,,,,,,,,,,,,,,,,,,,,,,,001,2022-10-22_17h10.25.999,test9,2022.2.4,60.16959403426891,
,,,,,,,,1,nBack1Cond.xlsx,111,7,-0.2,-0.2,None,1,27,,,,,,,,,,,,,0,0,0,0,0,26,26,26,,,,,,,,,,,,,,,,,,,,,,,,,,,,,,,,,,,,,,,,,767.2114201998338,767.2114201998338,767.2114201998338,767.2114201998338,767.2114201998338,767.2114201998338,767.2114201998338,767.2114201998338,767.2114201998338,767.2114201998338,768.1932233998086,768.2270801998675,769.1929327999242,None,,,,,,,,,,,,,,,,,,,,,,,,,,,,,,001,2022-10-22_17h10.25.999,test9,2022.2.4,60.16959403426891,
,,,,,,,,1,nBack1Cond.xlsx,111,7,-0.2,-0.2,space,1,28,,,,,,,,,,,,,0,0,0,0,0,27,27,27,,,,,,,,,,,,,,,,,,,,,,,,,,,,,,,,,,,,,,,,,769.2100827998947,769.2100827998947,769.2100827998947,769.2100827998947,769.2100827998947,769.2100827998947,769.2100827998947,769.2100827998947,769.2100827998947,769.2100827998947,770.1930594998412,770.2096452999394,771.192911399994,space,0.7232148998882622,,,,,,,,,,,,,,,,,,,,,,,,,,,,,001,2022-10-22_17h10.25.999,test9,2022.2.4,60.16959403426891,
,,,,,,,,1,nBack1Cond.xlsx,111,2,0,0.2,None,1,29,,,,,,,,,,,,,0,0,0,0,0,28,28,28,,,,,,,,,,,,,,,,,,,,,,,,,,,,,,,,,,,,,,,,,771.211368399905,771.211368399905,771.211368399905,771.211368399905,771.211368399905,771.211368399905,771.211368399905,771.211368399905,771.211368399905,771.211368399905,772.1928451999556,772.2260659998283,773.192522399826,None,,,,,,,,,,,,,,,,,,,,,,,,,,,,,,001,2022-10-22_17h10.25.999,test9,2022.2.4,60.16959403426891,
,,,,,,,,1,nBack1Cond.xlsx,111,6,0.2,0,None,1,30,,,,,,,,,,,,,0,0,0,0,0,29,29,29,,,,,,,,,,,,,,,,,,,,,,,,,,,,,,,,,,,,,,,,,773.2094395000022,773.2094395000022,773.2094395000022,773.2094395000022,773.2094395000022,773.2094395000022,773.2094395000022,773.2094395000022,773.2094395000022,773.2094395000022,774.192555999849,774.2098045998719,775.1924018999562,None,,,,,,,,,,,,,,,,,,,,,,,,,,,,,,001,2022-10-22_17h10.25.999,test9,2022.2.4,60.16959403426891,
,,,,,,,,1,nBack1Cond.xlsx,111,4,-0.2,0,None,1,31,,,,,,,,,,,,,0,0,0,0,0,30,30,30,,,,,,,,,,,,,,,,,,,,,,,,,,,,,,,,,,,,,,,,,775.2090480998158,775.2090480998158,775.2090480998158,775.2090480998158,775.2090480998158,775.2090480998158,775.2090480998158,775.2090480998158,775.2090480998158,775.2090480998158,776.1923877999652,776.2088091999758,777.1920067998581,None,,,,,,,,,,,,,,,,,,,,,,,,,,,,,,001,2022-10-22_17h10.25.999,test9,2022.2.4,60.16959403426891,
,,,,,,,,1,nBack1Cond.xlsx,111,4,-0.2,0,space,1,32,,,,,,,,,,,,,0,0,0,0,0,31,31,31,,,,,,,,,,,,,,,,,,,,,,,,,,,,,,,,,,,,,,,,,777.2092583000194,777.2092583000194,777.2092583000194,777.2092583000194,777.2092583000194,777.2092583000194,777.2092583000194,777.2092583000194,777.2092583000194,777.2092583000194,778.1919203998987,778.2084959000349,779.1918766000308,space,0.6965925998520106,,,,,,,,,,,,,,,,,,,,,,,,,,,,,001,2022-10-22_17h10.25.999,test9,2022.2.4,60.16959403426891,
,,,,,,,,1,nBack1Cond.xlsx,111,2,0,0.2,None,1,33,,,,,,,,,,,,,0,0,0,0,0,32,32,32,,,,,,,,,,,,,,,,,,,,,,,,,,,,,,,,,,,,,,,,,779.2098341998644,779.2098341998644,779.2098341998644,779.2098341998644,779.2098341998644,779.2098341998644,779.2098341998644,779.2098341998644,779.2098341998644,779.2098341998644,780.1919862998184,780.2254255998414,781.1914468000177,None,,,,,,,,,,,,,,,,,,,,,,,,,,,,,,001,2022-10-22_17h10.25.999,test9,2022.2.4,60.16959403426891,
,,,,,,,,1,nBack1Cond.xlsx,111,9,0.2,-0.2,None,1,34,,,,,,,,,,,,,0,0,0,0,0,33,33,33,,,,,,,,,,,,,,,,,,,,,,,,,,,,,,,,,,,,,,,,,781.2092055999674,781.2092055999674,781.2092055999674,781.2092055999674,781.2092055999674,781.2092055999674,781.2092055999674,781.2092055999674,781.2092055999674,781.2092055999674,782.1916480998043,782.2087848999072,783.1913030999713,None,,,,,,,,,,,,,,,,,,,,,,,,,,,,,,001,2022-10-22_17h10.25.999,test9,2022.2.4,60.16959403426891,
,,,,,,,,1,nBack1Cond.xlsx,111,9,0.2,-0.2,space,1,35,,,,,,,,,,,,,0,0,0,0,0,34,34,34,,,,,,,,,,,,,,,,,,,,,,,,,,,,,,,,,,,,,,,,,783.2101260998752,783.2101260998752,783.2101260998752,783.2101260998752,783.2101260998752,783.2101260998752,783.2101260998752,783.2101260998752,783.2101260998752,783.2101260998752,784.19122779998,784.224567799829,785.191059499979,space,0.7409382001496851,,,,,,,,,,,,,,,,,,,,,,,,,,,,,001,2022-10-22_17h10.25.999,test9,2022.2.4,60.16959403426891,
,,,,,,,,1,nBack1Cond.xlsx,111,3,0.2,0.2,None,1,36,,,,,,,,,,,,,0,0,0,0,0,35,35,35,,,,,,,,,,,,,,,,,,,,,,,,,,,,,,,,,,,,,,,,,785.2096773998346,785.2096773998346,785.2096773998346,785.2096773998346,785.2096773998346,785.2096773998346,785.2096773998346,785.2096773998346,785.2096773998346,785.2096773998346,786.1910911998712,786.2242238998879,787.1908638000023,None,,,,,,,,,,,,,,,,,,,,,,,,,,,,,,001,2022-10-22_17h10.25.999,test9,2022.2.4,60.16959403426891,
,,,,,,,,1,nBack1Cond.xlsx,111,7,-0.2,-0.2,None,1,37,,,,,,,,,,,,,0,0,0,0,0,36,36,36,,,,,,,,,,,,,,,,,,,,,,,,,,,,,,,,,,,,,,,,,787.2080325998832,787.2080325998832,787.2080325998832,787.2080325998832,787.2080325998832,787.2080325998832,787.2080325998832,787.2080325998832,787.2080325998832,787.2080325998832,788.191610999871,788.2075372999534,,None,,,,,,,,,,,,,,,,,,,,,,,,,,,,,,001,2022-10-22_17h10.25.999,test9,2022.2.4,60.16959403426891,
,,,,,,,,1,nBack1Cond.xlsx,111,7,-0.2,-0.2,space,1,38,,,,,,,,,,,,,0,0,0,0,0,37,37,37,,,,,,,,,,,,,,,,,,,,,,,,,,,,,,,,,,,,,,,,,789.2076274999417,789.2076274999417,789.2076274999417,789.2076274999417,789.2076274999417,789.2076274999417,789.2076274999417,789.2076274999417,789.2076274999417,789.2076274999417,790.1910856999457,790.2069353999104,791.1901942999102,space,0.6406042000744492,,,,,,,,,,,,,,,,,,,,,,,,,,,,,001,2022-10-22_17h10.25.999,test9,2022.2.4,60.16959403426891,
,,,,,,,,1,nBack1Cond.xlsx,111,7,-0.2,-0.2,space,1,39,,,,,,,,,,,,,0,0,0,0,0,38,38,38,,,,,,,,,,,,,,,,,,,,,,,,,,,,,,,,,,,,,,,,,791.2075984999537,791.2075984999537,791.2075984999537,791.2075984999537,791.2075984999537,791.2075984999537,791.2075984999537,791.2075984999537,791.2075984999537,791.2075984999537,792.1901401998475,792.2066831998527,793.190052599879,space,0.6795355998910964,,,,,,,,,,,,,,,,,,,,,,,,,,,,,001,2022-10-22_17h10.25.999,test9,2022.2.4,60.16959403426891,
,,,,,,,,1,nBack1Cond.xlsx,111,6,0.2,0,None,1,40,,,,,,,,,,,,,0,0,0,0,0,39,39,39,,,,,,,,,,,,,,,,,,,,,,,,,,,,,,,,,,,,,,,,,793.2080381999258,793.2080381999258,793.2080381999258,793.2080381999258,793.2080381999258,793.2080381999258,793.2080381999258,793.2080381999258,793.2080381999258,793.2080381999258,794.1916932999156,794.2066323999316,,None,,,,,,,,,,,,,,,,,,,,,,,,,,,,,,001,2022-10-22_17h10.25.999,test9,2022.2.4,60.16959403426891,
,,,,,,,,1,nBack1Cond.xlsx,111,6,0.2,0,space,1,41,,,,,,,,,,,,,0,0,0,0,0,40,40,40,,,,,,,,,,,,,,,,,,,,,,,,,,,,,,,,,,,,,,,,,795.2075141998939,795.2075141998939,795.2075141998939,795.2075141998939,795.2075141998939,795.2075141998939,795.2075141998939,795.2075141998939,795.2075141998939,795.2075141998939,796.1900517998729,796.2061768998392,797.1895816999022,space,0.7761550999712199,,,,,,,,,,,,,,,,,,,,,,,,,,,,,001,2022-10-22_17h10.25.999,test9,2022.2.4,60.16959403426891,
,,,,,,,,1,nBack1Cond.xlsx,111,1,-0.2,0.2,None,1,42,,,,,,,,,,,,,0,0,0,0,0,41,41,41,,,,,,,,,,,,,,,,,,,,,,,,,,,,,,,,,,,,,,,,,797.2060685998295,797.2060685998295,797.2060685998295,797.2060685998295,797.2060685998295,797.2060685998295,797.2060685998295,797.2060685998295,797.2060685998295,797.2060685998295,798.1894206998404,798.2060207999311,799.1892772999126,None,,,,,,,,,,,,,,,,,,,,,,,,,,,,,,001,2022-10-22_17h10.25.999,test9,2022.2.4,60.16959403426891,
,,,,,,,,1,nBack1Cond.xlsx,111,5,0,0,None,1,43,,,,,,,,,,,,,0,0,0,0,0,42,42,42,,,,,,,,,,,,,,,,,,,,,,,,,,,,,,,,,,,,,,,,,799.2076917998493,799.2076917998493,799.2076917998493,799.2076917998493,799.2076917998493,799.2076917998493,799.2076917998493,799.2076917998493,799.2076917998493,799.2076917998493,800.1893481998704,800.2223475999199,801.1888436998706,None,,,,,,,,,,,,,,,,,,,,,,,,,,,,,,001,2022-10-22_17h10.25.999,test9,2022.2.4,60.16959403426891,
,,,,,,,,1,nBack1Cond.xlsx,111,3,0.2,0.2,None,1,44,,,,,,,,,,,,,0,0,0,0,0,43,43,43,,,,,,,,,,,,,,,,,,,,,,,,,,,,,,,,,,,,,,,,,801.2240084998775,801.2240084998775,801.2240084998775,801.2240084998775,801.2240084998775,801.2240084998775,801.2240084998775,801.2240084998775,801.2240084998775,801.2240084998775,802.1888074998278,802.2233052998781,803.1887602999341,None,,,,,,,,,,,,,,,,,,,,,,,,,,,,,,001,2022-10-22_17h10.25.999,test9,2022.2.4,60.16959403426891,
,,,,,,,,1,nBack1Cond.xlsx,111,1,-0.2,0.2,None,1,45,,,,,,,,,,,,,0,0,0,0,0,44,44,44,,,,,,,,,,,,,,,,,,,,,,,,,,,,,,,,,,,,,,,,,803.2221727999859,803.2221727999859,803.2221727999859,803.2221727999859,803.2221727999859,803.2221727999859,803.2221727999859,803.2221727999859,803.2221727999859,803.2221727999859,804.188600699883,804.2218969999813,805.1884158998728,None,,,,,,,,,,,,,,,,,,,,,,,,,,,,,,001,2022-10-22_17h10.25.999,test9,2022.2.4,60.16959403426891,
,,,,,,,,1,nBack1Cond.xlsx,111,7,-0.2,-0.2,None,1,46,,,,,,,,,,,,,0,0,0,0,0,45,45,45,,,,,,,,,,,,,,,,,,,,,,,,,,,,,,,,,,,,,,,,,805.222421699902,805.222421699902,805.222421699902,805.222421699902,805.222421699902,805.222421699902,805.222421699902,805.222421699902,805.222421699902,805.222421699902,806.1883082999848,806.2217736998573,807.1881341999397,None,,,,,,,,,,,,,,,,,,,,,,,,,,,,,,001,2022-10-22_17h10.25.999,test9,2022.2.4,60.16959403426891,
,,,,,,,,1,nBack1Cond.xlsx,111,3,0.2,0.2,None,1,47,,,,,,,,,,,,,0,0,0,0,0,46,46,46,,,,,,,,,,,,,,,,,,,,,,,,,,,,,,,,,,,,,,,,,807.2215251999442,807.2215251999442,807.2215251999442,807.2215251999442,807.2215251999442,807.2215251999442,807.2215251999442,807.2215251999442,807.2215251999442,807.2215251999442,808.2046945998445,808.2212894998956,809.2046032999642,None,,,,,,,,,,,,,,,,,,,,,,,,,,,,,,001,2022-10-22_17h10.25.999,test9,2022.2.4,60.16959403426891,
,,,,,,,,1,nBack1Cond.xlsx,111,3,0.2,0.2,space,1,48,,,,,,,,,,,,,0,0,0,0,0,47,47,47,,,,,,,,,,,,,,,,,,,,,,,,,,,,,,,,,,,,,,,,,809.2214261998888,809.2214261998888,809.2214261998888,809.2214261998888,809.2214261998888,809.2214261998888,809.2214261998888,809.2214261998888,809.2214261998888,809.2214261998888,810.2044164999388,810.2210635999218,811.204331799876,space,0.8008698001503944,,,,,,,,,,,,,,,,,,,,,,,,,,,,,001,2022-10-22_17h10.25.999,test9,2022.2.4,60.16959403426891,
,,,,,,,,1,nBack1Cond.xlsx,111,9,0.2,-0.2,None,1,49,,,,,,,,,,,,,0,0,0,0,0,48,48,48,,,,,,,,,,,,,,,,,,,,,,,,,,,,,,,,,,,,,,,,,811.2229438999202,811.2229438999202,811.2229438999202,811.2229438999202,811.2229438999202,811.2229438999202,811.2229438999202,811.2229438999202,811.2229438999202,811.2229438999202,812.2052473998629,812.2375978999771,,None,,,,,,,,,,,,,,,,,,,,,,,,,,,,,,001,2022-10-22_17h10.25.999,test9,2022.2.4,60.16959403426891,
,,,,,,,,1,nBack1Cond.xlsx,111,7,-0.2,-0.2,None,1,50,,,,,,,,,,,,,0,0,0,0,0,49,49,49,,,,,,,,,,,,,,,,,,,,,,,,,,,,,,,,,,,,,,,,,813.2207660998683,813.2207660998683,813.2207660998683,813.2207660998683,813.2207660998683,813.2207660998683,813.2207660998683,813.2207660998683,813.2207660998683,813.2207660998683,814.2039967998862,814.2205248998944,815.2038328000344,None,,,,,,,,,,,,,,,,,,,,,,,,,,,,,,001,2022-10-22_17h10.25.999,test9,2022.2.4,60.16959403426891,
,,,,,,,,1,nBack1Cond.xlsx,111,5,0,0,None,1,51,,,,,,,,,,,,,0,0,0,0,0,50,50,50,,,,,,,,,,,,,,,,,,,,,,,,,,,,,,,,,,,,,,,,,815.2215360999107,815.2215360999107,815.2215360999107,815.2215360999107,815.2215360999107,815.2215360999107,815.2215360999107,815.2215360999107,815.2215360999107,815.2215360999107,816.2037745998241,816.2368424998131,817.2035018999595,None,,,,,,,,,,,,,,,,,,,,,,,,,,,,,,001,2022-10-22_17h10.25.999,test9,2022.2.4,60.16959403426891,
,,,,,,,,1,nBack1Cond.xlsx,111,8,0,-0.2,None,1,52,,,,,,,,,,,,,0,0,0,0,0,51,51,51,,,,,,,,,,,,,,,,,,,,,,,,,,,,,,,,,,,,,,,,,817.2212667998392,817.2212667998392,817.2212667998392,817.2212667998392,817.2212667998392,817.2212667998392,817.2212667998392,817.2212667998392,817.2212667998392,817.2212667998392,818.2034884998575,818.2366362998728,819.2032317998819,None,,,,,,,,,,,,,,,,,,,,,,,,,,,,,,001,2022-10-22_17h10.25.999,test9,2022.2.4,60.16959403426891,
,,,,,,,,1,nBack1Cond.xlsx,111,8,0,-0.2,space,1,53,,,,,,,,,,,,,0,0,0,0,0,52,52,52,,,,,,,,,,,,,,,,,,,,,,,,,,,,,,,,,,,,,,,,,819.2212610000279,819.2212610000279,819.2212610000279,819.2212610000279,819.2212610000279,819.2212610000279,819.2212610000279,819.2212610000279,819.2212610000279,819.2212610000279,820.203169599874,820.2365156998858,821.2030385998078,space,1.314831200055778,,,,,,,,,,,,,,,,,,,,,,,,,,,,,001,2022-10-22_17h10.25.999,test9,2022.2.4,60.16959403426891,
,,,,,,,,1,nBack1Cond.xlsx,111,7,-0.2,-0.2,None,1,54,,,,,,,,,,,,,0,0,0,0,0,53,53,53,,,,,,,,,,,,,,,,,,,,,,,,,,,,,,,,,,,,,,,,,821.2216366999783,821.2216366999783,821.2216366999783,821.2216366999783,821.2216366999783,821.2216366999783,821.2216366999783,821.2216366999783,821.2216366999783,821.2216366999783,822.2028750998434,822.2361226999201,823.2027641998138,None,,,,,,,,,,,,,,,,,,,,,,,,,,,,,,001,2022-10-22_17h10.25.999,test9,2022.2.4,60.16959403426891,
,,,,,,,,1,nBack1Cond.xlsx,111,4,-0.2,0,None,1,55,,,,,,,,,,,,,0,0,0,0,0,54,54,54,,,,,,,,,,,,,,,,,,,,,,,,,,,,,,,,,,,,,,,,,823.220275499858,823.220275499858,823.220275499858,823.220275499858,823.220275499858,823.220275499858,823.220275499858,823.220275499858,823.220275499858,823.220275499858,824.2025892999955,824.2358927999157,825.2025098998565,None,,,,,,,,,,,,,,,,,,,,,,,,,,,,,,001,2022-10-22_17h10.25.999,test9,2022.2.4,60.16959403426891,
,,,,,,,,1,nBack1Cond.xlsx,111,5,0,0,None,1,56,,,,,,,,,,,,,0,0,0,0,0,55,55,55,,,,,,,,,,,,,,,,,,,,,,,,,,,,,,,,,,,,,,,,,825.2210263998713,825.2210263998713,825.2210263998713,825.2210263998713,825.2210263998713,825.2210263998713,825.2210263998713,825.2210263998713,825.2210263998713,825.2210263998713,826.2023206998128,826.2356996999588,827.2022481998429,None,,,,,,,,,,,,,,,,,,,,,,,,,,,,,,001,2022-10-22_17h10.25.999,test9,2022.2.4,60.16959403426891,
,,,,,,,,1,nBack1Cond.xlsx,111,5,0,0,space,1,57,,,,,,,,,,,,,0,0,0,0,0,56,56,56,,,,,,,,,,,,,,,,,,,,,,,,,,,,,,,,,,,,,,,,,827.2206606999971,827.2206606999971,827.2206606999971,827.2206606999971,827.2206606999971,827.2206606999971,827.2206606999971,827.2206606999971,827.2206606999971,827.2206606999971,828.2019274998456,828.2353443999309,829.2019881999586,space,0.6711569998878986,,,,,,,,,,,,,,,,,,,,,,,,,,,,,001,2022-10-22_17h10.25.999,test9,2022.2.4,60.16959403426891,
,,,,,,,,1,nBack1Cond.xlsx,111,2,0,0.2,None,1,58,,,,,,,,,,,,,0,0,0,0,0,57,57,57,,,,,,,,,,,,,,,,,,,,,,,,,,,,,,,,,,,,,,,,,829.2186938999221,829.2186938999221,829.2186938999221,829.2186938999221,829.2186938999221,829.2186938999221,829.2186938999221,829.2186938999221,829.2186938999221,829.2186938999221,830.2017498998903,830.2183886999264,831.2017530999146,None,,,,,,,,,,,,,,,,,,,,,,,,,,,,,,001,2022-10-22_17h10.25.999,test9,2022.2.4,60.16959403426891,
,,,,,,,,1,nBack1Cond.xlsx,111,2,0,0.2,space,1,59,,,,,,,,,,,,,0,0,0,0,0,58,58,58,,,,,,,,,,,,,,,,,,,,,,,,,,,,,,,,,,,,,,,,,831.2183315998409,831.2183315998409,831.2183315998409,831.2183315998409,831.2183315998409,831.2183315998409,831.2183315998409,831.2183315998409,831.2183315998409,831.2183315998409,832.2017545998096,832.2190384999849,833.2018163998146,space,1.0587132999207824,,,,,,,,,,,,,,,,,,,,,,,,,,,,,001,2022-10-22_17h10.25.999,test9,2022.2.4,60.16959403426891,
,,,,,,,,1,nBack1Cond.xlsx,111,6,0.2,0,None,1,60,,,,,,,,,,,,,0,0,0,0,0,59,59,59,,,,,,,,,,,,,,,,,,,,,,,,,,,,,,,,,,,,,,,,,833.2181829998735,833.2181829998735,833.2181829998735,833.2181829998735,833.2181829998735,833.2181829998735,833.2181829998735,833.2181829998735,833.2181829998735,833.2181829998735,834.2012862998527,834.2180432998575,835.201202499913,None,,,,,,,,,,,,,,,,,,,,,,,,,,,,,,001,2022-10-22_17h10.25.999,test9,2022.2.4,60.16959403426891,
,,,,,,,,1,nBack1Cond.xlsx,111,2,0,0.2,None,1,61,,,,,,,,,,,,,0,0,0,0,0,60,60,60,,,,,,,,,,,,,,,,,,,,,,,,,,,,,,,,,,,,,,,,,835.2179610999301,835.2179610999301,835.2179610999301,835.2179610999301,835.2179610999301,835.2179610999301,835.2179610999301,835.2179610999301,835.2179610999301,835.2179610999301,836.2010078998283,836.2185187998693,837.2008867999539,None,,,,,,,,,,,,,,,,,,,,,,,,,,,,,,001,2022-10-22_17h10.25.999,test9,2022.2.4,60.16959403426891,
,,,,,,,,1,nBack1Cond.xlsx,111,2,0,0.2,space,1,62,,,,,,,,,,,,,0,0,0,0,0,61,61,61,,,,,,,,,,,,,,,,,,,,,,,,,,,,,,,,,,,,,,,,,837.2187850000337,837.2187850000337,837.2187850000337,837.2187850000337,837.2187850000337,837.2187850000337,837.2187850000337,837.2187850000337,837.2187850000337,837.2187850000337,838.2011386000086,838.2173828999512,839.2006333000027,space,0.6502898999024183,,,,,,,,,,,,,,,,,,,,,,,,,,,,,001,2022-10-22_17h10.25.999,test9,2022.2.4,60.16959403426891,
,,,,,,,,1,nBack1Cond.xlsx,111,5,0,0,None,1,63,,,,,,,,,,,,,0,0,0,0,0,62,62,62,,,,,,,,,,,,,,,,,,,,,,,,,,,,,,,,,,,,,,,,,839.2178252998274,839.2178252998274,839.2178252998274,839.2178252998274,839.2178252998274,839.2178252998274,839.2178252998274,839.2178252998274,839.2178252998274,839.2178252998274,840.2012598000001,840.2171228998341,841.2004546998069,None,,,,,,,,,,,,,,,,,,,,,,,,,,,,,,001,2022-10-22_17h10.25.999,test9,2022.2.4,60.16959403426891,
,,,,,,,,1,nBack1Cond.xlsx,111,5,0,0,space,1,64,,,,,,,,,,,,,0,0,0,0,0,63,63,63,,,,,,,,,,,,,,,,,,,,,,,,,,,,,,,,,,,,,,,,,841.2184119999874,841.2184119999874,841.2184119999874,841.2184119999874,841.2184119999874,841.2184119999874,841.2184119999874,841.2184119999874,841.2184119999874,841.2184119999874,842.200327700004,842.2337008998729,843.200223099906,space,0.6444480000063777,,,,,,,,,,,,,,,,,,,,,,,,,,,,,001,2022-10-22_17h10.25.999,test9,2022.2.4,60.16959403426891,
,,,,,,,,1,nBack1Cond.xlsx,111,4,-0.2,0,None,1,65,,,,,,,,,,,,,0,0,0,0,0,64,64,64,,,,,,,,,,,,,,,,,,,,,,,,,,,,,,,,,,,,,,,,,843.2187333998736,843.2187333998736,843.2187333998736,843.2187333998736,843.2187333998736,843.2187333998736,843.2187333998736,843.2187333998736,843.2187333998736,843.2187333998736,844.2001207999419,844.2334667998366,845.1999809998088,None,,,,,,,,,,,,,,,,,,,,,,,,,,,,,,001,2022-10-22_17h10.25.999,test9,2022.2.4,60.16959403426891,
,,,,,,,,1,nBack1Cond.xlsx,111,7,-0.2,-0.2,None,1,66,,,,,,,,,,,,,0,0,0,0,0,65,65,65,,,,,,,,,,,,,,,,,,,,,,,,,,,,,,,,,,,,,,,,,845.2165271998383,845.2165271998383,845.2165271998383,845.2165271998383,845.2165271998383,845.2165271998383,845.2165271998383,845.2165271998383,845.2165271998383,845.2165271998383,846.1998228998855,846.2164104999974,847.199615499936,None,,,,,,,,,,,,,,,,,,,,,,,,,,,,,,001,2022-10-22_17h10.25.999,test9,2022.2.4,60.16959403426891,
,,,,,,,,1,nBack1Cond.xlsx,111,8,0,-0.2,None,1,67,,,,,,,,,,,,,0,0,0,0,0,66,66,66,,,,,,,,,,,,,,,,,,,,,,,,,,,,,,,,,,,,,,,,,847.2163604998495,847.2163604998495,847.2163604998495,847.2163604998495,847.2163604998495,847.2163604998495,847.2163604998495,847.2163604998495,847.2163604998495,847.2163604998495,848.1997932998929,848.216081299819,849.1994588999078,None,,,,,,,,,,,,,,,,,,,,,,,,,,,,,,001,2022-10-22_17h10.25.999,test9,2022.2.4,60.16959403426891,
,,,,,,,,1,nBack1Cond.xlsx,111,8,0,-0.2,space,1,68,,,,,,,,,,,,,0,0,0,0,0,67,67,67,,,,,,,,,,,,,,,,,,,,,,,,,,,,,,,,,,,,,,,,,849.2159748999402,849.2159748999402,849.2159748999402,849.2159748999402,849.2159748999402,849.2159748999402,849.2159748999402,849.2159748999402,849.2159748999402,849.2159748999402,850.1993901999667,850.2158780999016,851.1990578998812,space,0.7927636001259089,,,,,,,,,,,,,,,,,,,,,,,,,,,,,001,2022-10-22_17h10.25.999,test9,2022.2.4,60.16959403426891,
,,,,,,,,1,nBack1Cond.xlsx,111,5,0,0,None,1,69,,,,,,,,,,,,,0,0,0,0,0,68,68,68,,,,,,,,,,,,,,,,,,,,,,,,,,,,,,,,,,,,,,,,,851.2159688000102,851.2159688000102,851.2159688000102,851.2159688000102,851.2159688000102,851.2159688000102,851.2159688000102,851.2159688000102,851.2159688000102,851.2159688000102,852.2004666000139,852.2154013998806,,None,,,,,,,,,,,,,,,,,,,,,,,,,,,,,,001,2022-10-22_17h10.25.999,test9,2022.2.4,60.16959403426891,
,,,,,,,,1,nBack1Cond.xlsx,111,7,-0.2,-0.2,None,1,70,,,,,,,,,,,,,0,0,0,0,0,69,69,69,,,,,,,,,,,,,,,,,,,,,,,,,,,,,,,,,,,,,,,,,853.2165830000304,853.2165830000304,853.2165830000304,853.2165830000304,853.2165830000304,853.2165830000304,853.2165830000304,853.2165830000304,853.2165830000304,853.2165830000304,854.1990294000134,854.2153956999537,855.1986378999427,None,,,,,,,,,,,,,,,,,,,,,,,,,,,,,,001,2022-10-22_17h10.25.999,test9,2022.2.4,60.16959403426891,
,,,,,,,,1,nBack1Cond.xlsx,111,9,0.2,-0.2,None,1,71,,,,,,,,,,,,,0,0,0,0,0,70,70,70,,,,,,,,,,,,,,,,,,,,,,,,,,,,,,,,,,,,,,,,,855.2152580998372,855.2152580998372,855.2152580998372,855.2152580998372,855.2152580998372,855.2152580998372,855.2152580998372,855.2152580998372,855.2152580998372,855.2152580998372,856.1984142998699,856.2150961000007,857.1982441998553,None,,,,,,,,,,,,,,,,,,,,,,,,,,,,,,001,2022-10-22_17h10.25.999,test9,2022.2.4,60.16959403426891,
,,,,,,,,1,nBack1Cond.xlsx,111,3,0.2,0.2,None,1,72,,,,,,,,,,,,,0,0,0,0,0,71,71,71,,,,,,,,,,,,,,,,,,,,,,,,,,,,,,,,,,,,,,,,,857.2163927999791,857.2163927999791,857.2163927999791,857.2163927999791,857.2163927999791,857.2163927999791,857.2163927999791,857.2163927999791,857.2163927999791,857.2163927999791,858.198219700018,858.2314824999776,859.1980832999106,None,,,,,,,,,,,,,,,,,,,,,,,,,,,,,,001,2022-10-22_17h10.25.999,test9,2022.2.4,60.16959403426891,
,,,,,,,,1,nBack1Cond.xlsx,111,3,0.2,0.2,space,1,73,,,,,,,,,,,,,0,0,0,0,0,72,72,72,,,,,,,,,,,,,,,,,,,,,,,,,,,,,,,,,,,,,,,,,859.2148696999066,859.2148696999066,859.2148696999066,859.2148696999066,859.2148696999066,859.2148696999066,859.2148696999066,859.2148696999066,859.2148696999066,859.2148696999066,860.1980180998798,860.2145749998745,861.197792199906,space,0.760790100088343,,,,,,,,,,,,,,,,,,,,,,,,,,,,,001,2022-10-22_17h10.25.999,test9,2022.2.4,60.16959403426891,
,,,,,,,,1,nBack1Cond.xlsx,111,7,-0.2,-0.2,None,1,74,,,,,,,,,,,,,0,0,0,0,0,73,73,73,,,,,,,,,,,,,,,,,,,,,,,,,,,,,,,,,,,,,,,,,861.2157826998737,861.2157826998737,861.2157826998737,861.2157826998737,861.2157826998737,861.2157826998737,861.2157826998737,861.2157826998737,861.2157826998737,861.2157826998737,862.1984667000361,862.2142214998603,863.1975112999789,None,,,,,,,,,,,,,,,,,,,,,,,,,,,,,,001,2022-10-22_17h10.25.999,test9,2022.2.4,60.16959403426891,
,,,,,,,,1,nBack1Cond.xlsx,111,1,-0.2,0.2,None,1,75,,,,,,,,,,,,,0,0,0,0,0,74,74,74,,,,,,,,,,,,,,,,,,,,,,,,,,,,,,,,,,,,,,,,,863.2143033999018,863.2143033999018,863.2143033999018,863.2143033999018,863.2143033999018,863.2143033999018,863.2143033999018,863.2143033999018,863.2143033999018,863.2143033999018,864.1973704998381,864.2140567000024,865.1973603998777,None,,,,,,,,,,,,,,,,,,,,,,,,,,,,,,001,2022-10-22_17h10.25.999,test9,2022.2.4,60.16959403426891,
,,,,,,,,1,nBack1Cond.xlsx,111,3,0.2,0.2,None,1,76,,,,,,,,,,,,,0,0,0,0,0,75,75,75,,,,,,,,,,,,,,,,,,,,,,,,,,,,,,,,,,,,,,,,,865.2150669998955,865.2150669998955,865.2150669998955,865.2150669998955,865.2150669998955,865.2150669998955,865.2150669998955,865.2150669998955,865.2150669998955,865.2150669998955,866.1977123999968,866.2138044999447,867.1970335999504,None,,,,,,,,,,,,,,,,,,,,,,,,,,,,,,001,2022-10-22_17h10.25.999,test9,2022.2.4,60.16959403426891,
,,,,,,,,1,nBack1Cond.xlsx,111,5,0,0,None,1,77,,,,,,,,,,,,,0,0,0,0,0,76,76,76,,,,,,,,,,,,,,,,,,,,,,,,,,,,,,,,,,,,,,,,,867.2146977998782,867.2146977998782,867.2146977998782,867.2146977998782,867.2146977998782,867.2146977998782,867.2146977998782,867.2146977998782,867.2146977998782,867.2146977998782,868.1989656998776,868.2160769999027,,None,,,,,,,,,,,,,,,,,,,,,,,,,,,,,,001,2022-10-22_17h10.25.999,test9,2022.2.4,60.16959403426891,
,,,,,,,,1,nBack1Cond.xlsx,111,1,-0.2,0.2,None,1,78,,,,,,,,,,,,,0,0,0,0,0,77,77,77,,,,,,,,,,,,,,,,,,,,,,,,,,,,,,,,,,,,,,,,,869.2161926999688,869.2161926999688,869.2161926999688,869.2161926999688,869.2161926999688,869.2161926999688,869.2161926999688,869.2161926999688,869.2161926999688,869.2161926999688,870.1966096998658,870.2299166999292,871.1964145998936,None,,,,,,,,,,,,,,,,,,,,,,,,,,,,,,001,2022-10-22_17h10.25.999,test9,2022.2.4,60.16959403426891,
,,,,,,,,1,nBack1Cond.xlsx,111,6,0.2,0,None,1,79,,,,,,,,,,,,,0,0,0,0,0,78,78,78,,,,,,,,,,,,,,,,,,,,,,,,,,,,,,,,,,,,,,,,,871.2133551998995,871.2133551998995,871.2133551998995,871.2133551998995,871.2133551998995,871.2133551998995,871.2133551998995,871.2133551998995,871.2133551998995,871.2133551998995,872.1969057000242,872.2130358999129,873.1962603998836,None,,,,,,,,,,,,,,,,,,,,,,,,,,,,,,001,2022-10-22_17h10.25.999,test9,2022.2.4,60.16959403426891,
,,,,,,,,1,nBack1Cond.xlsx,111,6,0.2,0,space,1,80,,,,,,,,,,,,,0,0,0,0,0,79,79,79,,,,,,,,,,,,,,,,,,,,,,,,,,,,,,,,,,,,,,,,,873.213661900023,873.213661900023,873.213661900023,873.213661900023,873.213661900023,873.213661900023,873.213661900023,873.213661900023,873.213661900023,873.213661900023,874.1963698000181,874.2128021998797,875.1959704000037,space,0.7247595000080764,,,,,,,,,,,,,,,,,,,,,,,,,,,,,001,2022-10-22_17h10.25.999,test9,2022.2.4,60.16959403426891,
,,,,,,,,1,nBack1Cond.xlsx,111,7,-0.2,-0.2,None,1,81,,,,,,,,,,,,,0,0,0,0,0,80,80,80,,,,,,,,,,,,,,,,,,,,,,,,,,,,,,,,,,,,,,,,,875.2154432998504,875.2154432998504,875.2154432998504,875.2154432998504,875.2154432998504,875.2154432998504,875.2154432998504,875.2154432998504,875.2154432998504,875.2154432998504,876.1958554999437,876.2291851998307,877.1956552998163,None,,,,,,,,,,,,,,,,,,,,,,,,,,,,,,001,2022-10-22_17h10.25.999,test9,2022.2.4,60.16959403426891,
,,,,,,,,1,nBack1Cond.xlsx,111,7,-0.2,-0.2,space,1,82,,,,,,,,,,,,,0,0,0,0,0,81,81,81,,,,,,,,,,,,,,,,,,,,,,,,,,,,,,,,,,,,,,,,,877.2136943000369,877.2136943000369,877.2136943000369,877.2136943000369,877.2136943000369,877.2136943000369,877.2136943000369,877.2136943000369,877.2136943000369,877.2136943000369,878.1957922999281,878.2290489999577,879.1955095999874,space,0.7745256000198424,,,,,,,,,,,,,,,,,,,,,,,,,,,,,001,2022-10-22_17h10.25.999,test9,2022.2.4,60.16959403426891,
,,,,,,,,1,nBack1Cond.xlsx,111,7,-0.2,-0.2,space,1,83,,,,,,,,,,,,,0,0,0,0,0,82,82,82,,,,,,,,,,,,,,,,,,,,,,,,,,,,,,,,,,,,,,,,,879.2126988000236,879.2126988000236,879.2126988000236,879.2126988000236,879.2126988000236,879.2126988000236,879.2126988000236,879.2126988000236,879.2126988000236,879.2126988000236,880.195365899941,880.2119750999846,881.1951233998407,space,1.029587300028652,,,,,,,,,,,,,,,,,,,,,,,,,,,,,001,2022-10-22_17h10.25.999,test9,2022.2.4,60.16959403426891,
,,,,,,,,1,nBack1Cond.xlsx,111,3,0.2,0.2,None,1,84,,,,,,,,,,,,,0,0,0,0,0,83,83,83,,,,,,,,,,,,,,,,,,,,,,,,,,,,,,,,,,,,,,,,,881.2129304998089,881.2129304998089,881.2129304998089,881.2129304998089,881.2129304998089,881.2129304998089,881.2129304998089,881.2129304998089,881.2129304998089,881.2129304998089,882.1953630999196,882.2116187999491,883.1948736999184,None,,,,,,,,,,,,,,,,,,,,,,,,,,,,,,001,2022-10-22_17h10.25.999,test9,2022.2.4,60.16959403426891,
,,,,,,,,1,nBack1Cond.xlsx,111,9,0.2,-0.2,None,1,85,,,,,,,,,,,,,0,0,0,0,0,84,84,84,,,,,,,,,,,,,,,,,,,,,,,,,,,,,,,,,,,,,,,,,883.2124464998487,883.2124464998487,883.2124464998487,883.2124464998487,883.2124464998487,883.2124464998487,883.2124464998487,883.2124464998487,883.2124464998487,883.2124464998487,884.194974699989,884.2115956998896,885.1948133998085,None,,,,,,,,,,,,,,,,,,,,,,,,,,,,,,001,2022-10-22_17h10.25.999,test9,2022.2.4,60.16959403426891,
,,,,,,,,1,nBack1Cond.xlsx,111,9,0.2,-0.2,space,1,86,,,,,,,,,,,,,0,0,0,0,0,85,85,85,,,,,,,,,,,,,,,,,,,,,,,,,,,,,,,,,,,,,,,,,885.2118873000145,885.2118873000145,885.2118873000145,885.2118873000145,885.2118873000145,885.2118873000145,885.2118873000145,885.2118873000145,885.2118873000145,885.2118873000145,886.1944746000227,886.2113363000099,887.1944190999493,space,0.7418466000817716,,,,,,,,,,,,,,,,,,,,,,,,,,,,,001,2022-10-22_17h10.25.999,test9,2022.2.4,60.16959403426891,
,,,,,,,,1,nBack1Cond.xlsx,111,2,0,0.2,None,1,87,,,,,,,,,,,,,0,0,0,0,0,86,86,86,,,,,,,,,,,,,,,,,,,,,,,,,,,,,,,,,,,,,,,,,887.2121275998652,887.2121275998652,887.2121275998652,887.2121275998652,887.2121275998652,887.2121275998652,887.2121275998652,887.2121275998652,887.2121275998652,887.2121275998652,888.1944024998229,888.2279230998829,889.1942000000272,None,,,,,,,,,,,,,,,,,,,,,,,,,,,,,,001,2022-10-22_17h10.25.999,test9,2022.2.4,60.16959403426891,
,,,,,,,,1,nBack1Cond.xlsx,111,4,-0.2,0,None,1,88,,,,,,,,,,,,,0,0,0,0,0,87,87,87,,,,,,,,,,,,,,,,,,,,,,,,,,,,,,,,,,,,,,,,,889.2108485999051,889.2108485999051,889.2108485999051,889.2108485999051,889.2108485999051,889.2108485999051,889.2108485999051,889.2108485999051,889.2108485999051,889.2108485999051,890.1940651999321,890.2110943999141,891.1938704999629,None,,,,,,,,,,,,,,,,,,,,,,,,,,,,,,001,2022-10-22_17h10.25.999,test9,2022.2.4,60.16959403426891,
,,,,,,,,1,nBack1Cond.xlsx,111,4,-0.2,0,space,1,89,,,,,,,,,,,,,0,0,0,0,0,88,88,88,,,,,,,,,,,,,,,,,,,,,,,,,,,,,,,,,,,,,,,,,891.2120711999014,891.2120711999014,891.2120711999014,891.2120711999014,891.2120711999014,891.2120711999014,891.2120711999014,891.2120711999014,891.2120711999014,891.2120711999014,892.1936003998853,892.2278762999922,893.1936886999756,None,,,,,,,,,,,,,,,,,,,,,,,,,,,,,,001,2022-10-22_17h10.25.999,test9,2022.2.4,60.16959403426891,
,,,,,,,,1,nBack1Cond.xlsx,111,6,0.2,0,None,1,90,,,,,,,,,,,,,0,0,0,0,0,89,89,89,,,,,,,,,,,,,,,,,,,,,,,,,,,,,,,,,,,,,,,,,893.211328699952,893.211328699952,893.211328699952,893.211328699952,893.211328699952,893.211328699952,893.211328699952,893.211328699952,893.211328699952,893.211328699952,894.1934777998831,894.2267544998322,895.193432,None,,,,,,,,,,,,,,,,,,,,,,,,,,,,,,001,2022-10-22_17h10.25.999,test9,2022.2.4,60.16959403426891,
,,,,,,,,1,nBack1Cond.xlsx,111,2,0,0.2,None,1,91,,,,,,,,,,,,,0,0,0,0,0,90,90,90,,,,,,,,,,,,,,,,,,,,,,,,,,,,,,,,,,,,,,,,,895.2108856998384,895.2108856998384,895.2108856998384,895.2108856998384,895.2108856998384,895.2108856998384,895.2108856998384,895.2108856998384,895.2108856998384,895.2108856998384,896.193273199955,896.209826399805,897.1931822998449,None,,,,,,,,,,,,,,,,,,,,,,,,,,,,,,001,2022-10-22_17h10.25.999,test9,2022.2.4,60.16959403426891,
,,,,,,,,1,nBack1Cond.xlsx,111,7,-0.2,-0.2,None,1,92,,,,,,,,,,,,,0,0,0,0,0,91,91,91,,,,,,,,,,,,,,,,,,,,,,,,,,,,,,,,,,,,,,,,,897.2107775998302,897.2107775998302,897.2107775998302,897.2107775998302,897.2107775998302,897.2107775998302,897.2107775998302,897.2107775998302,897.2107775998302,897.2107775998302,898.1929677999578,898.2263515000232,899.1929249998648,None,,,,,,,,,,,,,,,,,,,,,,,,,,,,,,001,2022-10-22_17h10.25.999,test9,2022.2.4,60.16959403426891,
,,,,,,,,1,nBack1Cond.xlsx,111,7,-0.2,-0.2,space,1,93,,,,,,,,,,,,,0,0,0,0,0,92,92,92,,,,,,,,,,,,,,,,,,,,,,,,,,,,,,,,,,,,,,,,,899.211378299864,899.211378299864,899.211378299864,899.211378299864,899.211378299864,899.211378299864,899.211378299864,899.211378299864,899.211378299864,899.211378299864,900.1927107998636,900.2259837000165,901.1924781999551,space,0.6741043000947684,,,,,,,,,,,,,,,,,,,,,,,,,,,,,001,2022-10-22_17h10.25.999,test9,2022.2.4,60.16959403426891,
,,,,,,,,1,nBack1Cond.xlsx,111,1,-0.2,0.2,None,1,94,,,,,,,,,,,,,0,0,0,0,0,93,93,93,,,,,,,,,,,,,,,,,,,,,,,,,,,,,,,,,,,,,,,,,901.2092352998443,901.2092352998443,901.2092352998443,901.2092352998443,901.2092352998443,901.2092352998443,901.2092352998443,901.2092352998443,901.2092352998443,901.2092352998443,902.1924501999747,902.2091182998847,903.1924262999091,None,,,,,,,,,,,,,,,,,,,,,,,,,,,,,,001,2022-10-22_17h10.25.999,test9,2022.2.4,60.16959403426891,
,,,,,,,,1,nBack1Cond.xlsx,111,2,0,0.2,None,1,95,,,,,,,,,,,,,0,0,0,0,0,94,94,94,,,,,,,,,,,,,,,,,,,,,,,,,,,,,,,,,,,,,,,,,903.2091143999714,903.2091143999714,903.2091143999714,903.2091143999714,903.2091143999714,903.2091143999714,903.2091143999714,903.2091143999714,903.2091143999714,903.2091143999714,904.1922134999186,904.208793199854,905.1921488998923,None,,,,,,,,,,,,,,,,,,,,,,,,,,,,,,001,2022-10-22_17h10.25.999,test9,2022.2.4,60.16959403426891,
,,,,,,,,1,nBack1Cond.xlsx,111,3,0.2,0.2,None,1,96,,,,,,,,,,,,,0,0,0,0,0,95,95,95,,,,,,,,,,,,,,,,,,,,,,,,,,,,,,,,,,,,,,,,,905.2098883998115,905.2098883998115,905.2098883998115,905.2098883998115,905.2098883998115,905.2098883998115,905.2098883998115,905.2098883998115,905.2098883998115,905.2098883998115,906.19204419991,906.2252479000017,907.1918794999365,None,,,,,,,,,,,,,,,,,,,,,,,,,,,,,,001,2022-10-22_17h10.25.999,test9,2022.2.4,60.16959403426891,
,,,,,,,,1,nBack1Cond.xlsx,111,1,-0.2,0.2,None,1,97,,,,,,,,,,,,,0,0,0,0,0,96,96,96,,,,,,,,,,,,,,,,,,,,,,,,,,,,,,,,,,,,,,,,,907.2084842999466,907.2084842999466,907.2084842999466,907.2084842999466,907.2084842999466,907.2084842999466,907.2084842999466,907.2084842999466,907.2084842999466,907.2084842999466,908.1918367999606,908.2082644999027,909.191639999859,None,,,,,,,,,,,,,,,,,,,,,,,,,,,,,,001,2022-10-22_17h10.25.999,test9,2022.2.4,60.16959403426891,
,,,,,,,,1,nBack1Cond.xlsx,111,1,-0.2,0.2,space,1,98,,,,,,,,,,,,,0,0,0,0,0,97,97,97,,,,,,,,,,,,,,,,,,,,,,,,,,,,,,,,,,,,,,,,,909.2085773998406,909.2085773998406,909.2085773998406,909.2085773998406,909.2085773998406,909.2085773998406,909.2085773998406,909.2085773998406,909.2085773998406,909.2085773998406,910.191533499863,910.2092279999051,911.1911470999476,space,0.9847158999182284,,,,,,,,,,,,,,,,,,,,,,,,,,,,,001,2022-10-22_17h10.25.999,test9,2022.2.4,60.16959403426891,
,,,,,,,,1,nBack1Cond.xlsx,111,1,-0.2,0.2,space,1,99,,,,,,,,,,,,,0,0,0,0,0,98,98,98,,,,,,,,,,,,,,,,,,,,,,,,,,,,,,,,,,,,,,,,,911.2098073000088,911.2098073000088,911.2098073000088,911.2098073000088,911.2098073000088,911.2098073000088,911.2098073000088,911.2098073000088,911.2098073000088,911.2098073000088,912.1911300998181,912.2244614998344,913.1910675999243,space,0.6956225000321865,,,,,,,,,,,,,,,,,,,,,,,,,,,,,001,2022-10-22_17h10.25.999,test9,2022.2.4,60.16959403426891,
,,,,,,,,1,nBack1Cond.xlsx,111,6,0.2,0,None,1,100,,,,,,,,,,,,,0,0,0,0,0,99,99,99,,,,,,,,,,,,,,,,,,,,,,,,,,,,,,,,,,,,,,,,,913.2098900999408,913.2098900999408,913.2098900999408,913.2098900999408,913.2098900999408,913.2098900999408,913.2098900999408,913.2098900999408,913.2098900999408,913.2098900999408,914.1908842998091,914.2243084998336,915.1908028000034,None,,,,,,,,,,,,,,,,,,,,,,,,,,,,,,001,2022-10-22_17h10.25.999,test9,2022.2.4,60.16959403426891,
,,,,,,,,1,nBack1Cond.xlsx,111,3,0.2,0.2,None,1,101,,,,,,,,,,,,,0,0,0,0,0,100,100,100,,,,,,,,,,,,,,,,,,,,,,,,,,,,,,,,,,,,,,,,,915.2087422998156,915.2087422998156,915.2087422998156,915.2087422998156,915.2087422998156,915.2087422998156,915.2087422998156,915.2087422998156,915.2087422998156,915.2087422998156,916.1909227999859,916.2239192998968,917.190475899959,None,,,,,,,,,,,,,,,,,,,,,,,,,,,,,,001,2022-10-22_17h10.25.999,test9,2022.2.4,60.16959403426891,
,,,,,,,,1,nBack1Cond.xlsx,111,1,-0.2,0.2,None,1,102,,,,,,,,,,,,,0,0,0,0,0,101,101,101,,,,,,,,,,,,,,,,,,,,,,,,,,,,,,,,,,,,,,,,,917.2078318998683,917.2078318998683,917.2078318998683,917.2078318998683,917.2078318998683,917.2078318998683,917.2078318998683,917.2078318998683,917.2078318998683,917.2078318998683,918.1907730000094,918.2069917998742,919.1902715000324,None,,,,,,,,,,,,,,,,,,,,,,,,,,,,,,001,2022-10-22_17h10.25.999,test9,2022.2.4,60.16959403426891,
,,,,,,,,1,nBack1Cond.xlsx,111,5,0,0,None,1,103,,,,,,,,,,,,,0,0,0,0,0,102,102,102,,,,,,,,,,,,,,,,,,,,,,,,,,,,,,,,,,,,,,,,,919.208275699988,919.208275699988,919.208275699988,919.208275699988,919.208275699988,919.208275699988,919.208275699988,919.208275699988,919.208275699988,919.208275699988,920.1901220998261,920.2234219999518,921.1900347999763,None,,,,,,,,,,,,,,,,,,,,,,,,,,,,,,001,2022-10-22_17h10.25.999,test9,2022.2.4,60.16959403426891,
,,,,,,,,1,nBack1Cond.xlsx,111,5,0,0,space,1,104,,,,,,,,,,,,,0,0,0,0,0,103,103,103,,,,,,,,,,,,,,,,,,,,,,,,,,,,,,,,,,,,,,,,,921.2079090999905,921.2079090999905,921.2079090999905,921.2079090999905,921.2079090999905,921.2079090999905,921.2079090999905,921.2079090999905,921.2079090999905,921.2079090999905,922.1900145998225,922.2232778999023,923.1897634000052,space,0.6476651001721621,,,,,,,,,,,,,,,,,,,,,,,,,,,,,001,2022-10-22_17h10.25.999,test9,2022.2.4,60.16959403426891,
,,,,,,,,1,nBack1Cond.xlsx,111,8,0,-0.2,None,1,105,,,,,,,,,,,,,0,0,0,0,0,104,104,104,,,,,,,,,,,,,,,,,,,,,,,,,,,,,,,,,,,,,,,,,923.2064453999046,923.2064453999046,923.2064453999046,923.2064453999046,923.2064453999046,923.2064453999046,923.2064453999046,923.2064453999046,923.2064453999046,923.2064453999046,924.1899653999135,924.2064701998606,925.1894929998089,None,,,,,,,,,,,,,,,,,,,,,,,,,,,,,,001,2022-10-22_17h10.25.999,test9,2022.2.4,60.16959403426891,
,,,,,,,,1,nBack1Cond.xlsx,111,4,-0.2,0,None,1,106,,,,,,,,,,,,,0,0,0,0,0,105,105,105,,,,,,,,,,,,,,,,,,,,,,,,,,,,,,,,,,,,,,,,,925.2077506999485,925.2077506999485,925.2077506999485,925.2077506999485,925.2077506999485,925.2077506999485,925.2077506999485,925.2077506999485,925.2077506999485,925.2077506999485,926.211888999911,926.2346490998752,,None,,,,,,,,,,,,,,,,,,,,,,,,,,,,,,001,2022-10-22_17h10.25.999,test9,2022.2.4,60.16959403426891,
,,,,,,,,1,nBack1Cond.xlsx,111,4,-0.2,0,space,1,107,,,,,,,,,,,,,0,0,0,0,0,106,106,106,,,,,,,,,,,,,,,,,,,,,,,,,,,,,,,,,,,,,,,,,927.2070783998352,927.2070783998352,927.2070783998352,927.2070783998352,927.2070783998352,927.2070783998352,927.2070783998352,927.2070783998352,927.2070783998352,927.2070783998352,928.1897592998575,928.2056791000068,929.188963699853,space,0.746252000099048,,,,,,,,,,,,,,,,,,,,,,,,,,,,,001,2022-10-22_17h10.25.999,test9,2022.2.4,60.16959403426891,
,,,,,,,,1,nBack1Cond.xlsx,111,2,0,0.2,None,1,108,,,,,,,,,,,,,0,0,0,0,0,107,107,107,,,,,,,,,,,,,,,,,,,,,,,,,,,,,,,,,,,,,,,,,929.2233529998921,929.2233529998921,929.2233529998921,929.2233529998921,929.2233529998921,929.2233529998921,929.2233529998921,929.2233529998921,929.2233529998921,929.2233529998921,930.1890292998869,930.2396917999722,931.1887338999659,None,,,,,,,,,,,,,,,,,,,,,,,,,,,,,,001,2022-10-22_17h10.25.999,test9,2022.2.4,60.16959403426891,
,,,,,,,,1,nBack1Cond.xlsx,111,1,-0.2,0.2,None,1,109,,,,,,,,,,,,,0,0,0,0,0,108,108,108,,,,,,,,,,,,,,,,,,,,,,,,,,,,,,,,,,,,,,,,,931.2234264998697,931.2234264998697,931.2234264998697,931.2234264998697,931.2234264998697,931.2234264998697,931.2234264998697,931.2234264998697,931.2234264998697,931.2234264998697,932.1885978998616,932.2392619999591,933.1885134000331,None,,,,,,,,,,,,,,,,,,,,,,,,,,,,,,001,2022-10-22_17h10.25.999,test9,2022.2.4,60.16959403426891,
,,,,,,,,1,nBack1Cond.xlsx,111,8,0,-0.2,None,1,110,,,,,,,,,,,,,0,0,0,0,0,109,109,109,,,,,,,,,,,,,,,,,,,,,,,,,,,,,,,,,,,,,,,,,933.2229261000175,933.2229261000175,933.2229261000175,933.2229261000175,933.2229261000175,933.2229261000175,933.2229261000175,933.2229261000175,933.2229261000175,933.2229261000175,934.1891643998679,934.2216156998184,935.2048251999076,None,,,,,,,,,,,,,,,,,,,,,,,,,,,,,,001,2022-10-22_17h10.25.999,test9,2022.2.4,60.16959403426891,
,,,,,,,,1,nBack1Cond.xlsx,111,3,0.2,0.2,None,1,111,,,,,,,,,,,,,0,0,0,0,0,110,110,110,,,,,,,,,,,,,,,,,,,,,,,,,,,,,,,,,,,,,,,,,935.2215308998711,935.2215308998711,935.2215308998711,935.2215308998711,935.2215308998711,935.2215308998711,935.2215308998711,935.2215308998711,935.2215308998711,935.2215308998711,936.1887182998471,936.2213689999189,937.1879022999201,None,,,,,,,,,,,,,,,,,,,,,,,,,,,,,,001,2022-10-22_17h10.25.999,test9,2022.2.4,60.16959403426891,
,,,,,,,,1,nBack1Cond.xlsx,111,3,0.2,0.2,space,1,112,,,,,,,,,,,,,0,0,0,0,0,111,111,111,,,,,,,,,,,,,,,,,,,,,,,,,,,,,,,,,,,,,,,,,937.2213163999841,937.2213163999841,937.2213163999841,937.2213163999841,937.2213163999841,937.2213163999841,937.2213163999841,937.2213163999841,937.2213163999841,937.2213163999841,938.204432199942,938.2211481998675,939.2046503999736,space,0.9436200000345707,,,,,,,,,,,,,,,,,,,,,,,,,,,,,001,2022-10-22_17h10.25.999,test9,2022.2.4,60.16959403426891,
,,,,,,,,1,nBack1Cond.xlsx,111,4,-0.2,0,None,1,113,,,,,,,,,,,,,0,0,0,0,0,112,112,112,,,,,,,,,,,,,,,,,,,,,,,,,,,,,,,,,,,,,,,,,939.2247848999687,939.2247848999687,939.2247848999687,939.2247848999687,939.2247848999687,939.2247848999687,939.2247848999687,939.2247848999687,939.2247848999687,939.2247848999687,940.204186799936,940.237463099882,,None,,,,,,,,,,,,,,,,,,,,,,,,,,,,,,001,2022-10-22_17h10.25.999,test9,2022.2.4,60.16959403426891,
,,,,,,,,1,nBack1Cond.xlsx,111,6,0.2,0,None,1,114,,,,,,,,,,,,,0,0,0,0,0,113,113,113,,,,,,,,,,,,,,,,,,,,,,,,,,,,,,,,,,,,,,,,,941.2090274000075,941.2090274000075,941.2090274000075,941.2090274000075,941.2090274000075,941.2090274000075,941.2090274000075,941.2090274000075,941.2090274000075,941.2090274000075,942.2039707999211,942.2208616998978,943.2038145000115,None,,,,,,,,,,,,,,,,,,,,,,,,,,,,,,001,2022-10-22_17h10.25.999,test9,2022.2.4,60.16959403426891,
,,,,,,,,1,nBack1Cond.xlsx,111,9,0.2,-0.2,None,1,115,,,,,,,,,,,,,0,0,0,0,0,114,114,114,,,,,,,,,,,,,,,,,,,,,,,,,,,,,,,,,,,,,,,,,943.2209907998331,943.2209907998331,943.2209907998331,943.2209907998331,943.2209907998331,943.2209907998331,943.2209907998331,943.2209907998331,943.2209907998331,943.2209907998331,944.2037288998254,944.2202906999737,945.2035685998853,None,,,,,,,,,,,,,,,,,,,,,,,,,,,,,,001,2022-10-22_17h10.25.999,test9,2022.2.4,60.16959403426891,
,,,,,,,,1,nBack1Cond.xlsx,111,9,0.2,-0.2,space,1,116,,,,,,,,,,,,,0,0,0,0,0,115,115,115,,,,,,,,,,,,,,,,,,,,,,,,,,,,,,,,,,,,,,,,,945.2203490999527,945.2203490999527,945.2203490999527,945.2203490999527,945.2203490999527,945.2203490999527,945.2203490999527,945.2203490999527,945.2203490999527,945.2203490999527,946.2033969999757,946.2201713998802,947.2033384998795,space,0.7797081000171602,,,,,,,,,,,,,,,,,,,,,,,,,,,,,001,2022-10-22_17h10.25.999,test9,2022.2.4,60.16959403426891,
,,,,,,,,1,nBack1Cond.xlsx,111,2,0,0.2,None,1,117,,,,,,,,,,,,,0,0,0,0,0,116,116,116,,,,,,,,,,,,,,,,,,,,,,,,,,,,,,,,,,,,,,,,,947.2213365000207,947.2213365000207,947.2213365000207,947.2213365000207,947.2213365000207,947.2213365000207,947.2213365000207,947.2213365000207,947.2213365000207,947.2213365000207,948.2030934998766,948.2364775999449,949.2031050999649,None,,,,,,,,,,,,,,,,,,,,,,,,,,,,,,001,2022-10-22_17h10.25.999,test9,2022.2.4,60.16959403426891,
,,,,,,,,1,nBack1Cond.xlsx,111,6,0.2,0,None,1,118,,,,,,,,,,,,,0,0,0,0,0,117,117,117,,,,,,,,,,,,,,,,,,,,,,,,,,,,,,,,,,,,,,,,,949.2218170999549,949.2218170999549,949.2218170999549,949.2218170999549,949.2218170999549,949.2218170999549,949.2218170999549,949.2218170999549,949.2218170999549,949.2218170999549,950.202874599956,950.2362054998521,951.2026288998313,None,,,,,,,,,,,,,,,,,,,,,,,,,,,,,,001,2022-10-22_17h10.25.999,test9,2022.2.4,60.16959403426891,
,,,,,,,,1,nBack1Cond.xlsx,111,6,0.2,0,space,1,119,,,,,,,,,,,,,0,0,0,0,0,118,118,118,,,,,,,,,,,,,,,,,,,,,,,,,,,,,,,,,,,,,,,,,951.2201400999911,951.2201400999911,951.2201400999911,951.2201400999911,951.2201400999911,951.2201400999911,951.2201400999911,951.2201400999911,951.2201400999911,951.2201400999911,952.2030908998568,952.2195860999636,953.2025264999829,space,0.879282700130716,,,,,,,,,,,,,,,,,,,,,,,,,,,,,001,2022-10-22_17h10.25.999,test9,2022.2.4,60.16959403426891,
,,,,,,,,1,nBack1Cond.xlsx,111,,,,,,,,,,,,,,,,,,,0,0,0,0,,,,,,,,,,,,,,,,,,,,,,,,,,,,,,,,,,,,,,,,,,,,,,,,,,,,,,,,,,,,,,,,,,,,,,,,,,,,,,,,,,,,,,,,001,2022-10-22_17h10.25.999,test9,2022.2.4,60.16959403426891,
,,,,,,,,2,nBack2Cond.xlsx,121,5,0,0,None,2,120,,,,,,,,,,,,,0,1,1,1,0,0,0,0,,,,,,,,,,,,,,,,,,,,,,,,,,,,,,,,,,,,,953.2696301999968,953.2696301999968,953.2696301999968,953.2696301999968,960.3291205998976,960.3291205998976,960.3291205998976,960.3291205998976,960.3291205998976,960.3291205998976,960.3291205998976,960.3291205998976,960.3291205998976,960.3291205998976,961.284761799965,961.3347507999279,962.2847595999483,None,,,,,,,,,,,,,,,,,,,,,,,,,,,,,,001,2022-10-22_17h10.25.999,test9,2022.2.4,60.16959403426891,
,,,,,,,,2,nBack2Cond.xlsx,121,2,0,0.2,None,2,121,,,,,,,,,,,,,0,1,1,1,0,1,1,1,,,,,,,,,,,,,,,,,,,,,,,,,,,,,,,,,,,,,,,,,962.3017821998801,962.3017821998801,962.3017821998801,962.3017821998801,962.3017821998801,962.3017821998801,962.3017821998801,962.3017821998801,962.3017821998801,962.3017821998801,963.2845140998252,963.3012227998115,964.2844535999466,None,,,,,,,,,,,,,,,,,,,,,,,,,,,,,,001,2022-10-22_17h10.25.999,test9,2022.2.4,60.16959403426891,
,,,,,,,,2,nBack2Cond.xlsx,121,6,0.2,0,None,2,122,,,,,,,,,,,,,0,1,1,1,0,2,2,2,,,,,,,,,,,,,,,,,,,,,,,,,,,,,,,,,,,,,,,,,964.3011141999159,964.3011141999159,964.3011141999159,964.3011141999159,964.3011141999159,964.3011141999159,964.3011141999159,964.3011141999159,964.3011141999159,964.3011141999159,965.2843414999079,965.301337899873,966.2842327000108,None,,,,,,,,,,,,,,,,,,,,,,,,,,,,,,001,2022-10-22_17h10.25.999,test9,2022.2.4,60.16959403426891,
,,,,,,,,2,nBack2Cond.xlsx,121,9,0.2,-0.2,None,2,123,,,,,,,,,,,,,0,1,1,1,0,3,3,3,,,,,,,,,,,,,,,,,,,,,,,,,,,,,,,,,,,,,,,,,966.3008616999723,966.3008616999723,966.3008616999723,966.3008616999723,966.3008616999723,966.3008616999723,966.3008616999723,966.3008616999723,966.3008616999723,966.3008616999723,967.2841836998705,967.3007008000277,968.2839678998571,None,,,,,,,,,,,,,,,,,,,,,,,,,,,,,,001,2022-10-22_17h10.25.999,test9,2022.2.4,60.16959403426891,
,,,,,,,,2,nBack2Cond.xlsx,121,3,0.2,0.2,None,2,124,,,,,,,,,,,,,0,1,1,1,0,4,4,4,,,,,,,,,,,,,,,,,,,,,,,,,,,,,,,,,,,,,,,,,968.3019186998717,968.3019186998717,968.3019186998717,968.3019186998717,968.3019186998717,968.3019186998717,968.3019186998717,968.3019186998717,968.3019186998717,968.3019186998717,969.2838645000011,969.3174252000172,970.2836752999574,None,,,,,,,,,,,,,,,,,,,,,,,,,,,,,,001,2022-10-22_17h10.25.999,test9,2022.2.4,60.16959403426891,
,,,,,,,,2,nBack2Cond.xlsx,121,9,0.2,-0.2,space,2,125,,,,,,,,,,,,,0,1,1,1,0,5,5,5,,,,,,,,,,,,,,,,,,,,,,,,,,,,,,,,,,,,,,,,,970.3026327998377,970.3026327998377,970.3026327998377,970.3026327998377,970.3026327998377,970.3026327998377,970.3026327998377,970.3026327998377,970.3026327998377,970.3026327998377,971.284308699891,971.31712279981,972.2834326999728,space,0.9973125997930765,,,,,,,,,,,,,,,,,,,,,,,,,,,,,001,2022-10-22_17h10.25.999,test9,2022.2.4,60.16959403426891,
,,,,,,,,2,nBack2Cond.xlsx,121,7,-0.2,-0.2,None,2,126,,,,,,,,,,,,,0,1,1,1,0,6,6,6,,,,,,,,,,,,,,,,,,,,,,,,,,,,,,,,,,,,,,,,,972.3014902998693,972.3014902998693,972.3014902998693,972.3014902998693,972.3014902998693,972.3014902998693,972.3014902998693,972.3014902998693,972.3014902998693,972.3014902998693,973.2831750998739,973.319866299862,974.2835722998716,None,,,,,,,,,,,,,,,,,,,,,,,,,,,,,,001,2022-10-22_17h10.25.999,test9,2022.2.4,60.16959403426891,
,,,,,,,,2,nBack2Cond.xlsx,121,1,-0.2,0.2,None,2,127,,,,,,,,,,,,,0,1,1,1,0,7,7,7,,,,,,,,,,,,,,,,,,,,,,,,,,,,,,,,,,,,,,,,,974.3013986998703,974.3013986998703,974.3013986998703,974.3013986998703,974.3013986998703,974.3013986998703,974.3013986998703,974.3013986998703,974.3013986998703,974.3013986998703,975.2829817999154,975.3162342000287,976.2829320000019,None,,,,,,,,,,,,,,,,,,,,,,,,,,,,,,001,2022-10-22_17h10.25.999,test9,2022.2.4,60.16959403426891,
,,,,,,,,2,nBack2Cond.xlsx,121,5,0,0,None,2,128,,,,,,,,,,,,,0,1,1,1,0,8,8,8,,,,,,,,,,,,,,,,,,,,,,,,,,,,,,,,,,,,,,,,,976.3002533998806,976.3002533998806,976.3002533998806,976.3002533998806,976.3002533998806,976.3002533998806,976.3002533998806,976.3002533998806,976.3002533998806,976.3002533998806,977.2828209998552,977.2994885998778,978.2826139999088,None,,,,,,,,,,,,,,,,,,,,,,,,,,,,,,001,2022-10-22_17h10.25.999,test9,2022.2.4,60.16959403426891,
,,,,,,,,2,nBack2Cond.xlsx,121,7,-0.2,-0.2,None,2,129,,,,,,,,,,,,,0,1,1,1,0,9,9,9,,,,,,,,,,,,,,,,,,,,,,,,,,,,,,,,,,,,,,,,,978.2994210999459,978.2994210999459,978.2994210999459,978.2994210999459,978.2994210999459,978.2994210999459,978.2994210999459,978.2994210999459,978.2994210999459,978.2994210999459,979.2825807998888,979.2991170999594,980.2823437999468,None,,,,,,,,,,,,,,,,,,,,,,,,,,,,,,001,2022-10-22_17h10.25.999,test9,2022.2.4,60.16959403426891,
,,,,,,,,2,nBack2Cond.xlsx,121,5,0,0,space,2,130,,,,,,,,,,,,,0,1,1,1,0,10,10,10,,,,,,,,,,,,,,,,,,,,,,,,,,,,,,,,,,,,,,,,,980.2991156999487,980.2991156999487,980.2991156999487,980.2991156999487,980.2991156999487,980.2991156999487,980.2991156999487,980.2991156999487,980.2991156999487,980.2991156999487,981.2824460999109,981.29879169981,982.2821231000125,space,0.7080262000672519,,,,,,,,,,,,,,,,,,,,,,,,,,,,,001,2022-10-22_17h10.25.999,test9,2022.2.4,60.16959403426891,
,,,,,,,,2,nBack2Cond.xlsx,121,6,0.2,0,None,2,131,,,,,,,,,,,,,0,1,1,1,0,11,11,11,,,,,,,,,,,,,,,,,,,,,,,,,,,,,,,,,,,,,,,,,982.300083699869,982.300083699869,982.300083699869,982.300083699869,982.300083699869,982.300083699869,982.300083699869,982.300083699869,982.300083699869,982.300083699869,983.2822420999873,983.3152375998907,984.2817736000288,None,,,,,,,,,,,,,,,,,,,,,,,,,,,,,,001,2022-10-22_17h10.25.999,test9,2022.2.4,60.16959403426891,
,,,,,,,,2,nBack2Cond.xlsx,121,3,0.2,0.2,None,2,132,,,,,,,,,,,,,0,1,1,1,0,12,12,12,,,,,,,,,,,,,,,,,,,,,,,,,,,,,,,,,,,,,,,,,984.3005913998932,984.3005913998932,984.3005913998932,984.3005913998932,984.3005913998932,984.3005913998932,984.3005913998932,984.3005913998932,984.3005913998932,984.3005913998932,985.2817648998462,985.3150300998241,986.2815246998798,None,,,,,,,,,,,,,,,,,,,,,,,,,,,,,,001,2022-10-22_17h10.25.999,test9,2022.2.4,60.16959403426891,
,,,,,,,,2,nBack2Cond.xlsx,121,6,0.2,0,space,2,133,,,,,,,,,,,,,0,1,1,1,0,13,13,13,,,,,,,,,,,,,,,,,,,,,,,,,,,,,,,,,,,,,,,,,986.2981881999876,986.2981881999876,986.2981881999876,986.2981881999876,986.2981881999876,986.2981881999876,986.2981881999876,986.2981881999876,986.2981881999876,986.2981881999876,987.2814338998869,987.2981529999524,988.2812877998222,space,0.5923230000771582,,,,,,,,,,,,,,,,,,,,,,,,,,,,,001,2022-10-22_17h10.25.999,test9,2022.2.4,60.16959403426891,
,,,,,,,,2,nBack2Cond.xlsx,121,8,0,-0.2,None,2,134,,,,,,,,,,,,,0,1,1,1,0,14,14,14,,,,,,,,,,,,,,,,,,,,,,,,,,,,,,,,,,,,,,,,,988.2996409998741,988.2996409998741,988.2996409998741,988.2996409998741,988.2996409998741,988.2996409998741,988.2996409998741,988.2996409998741,988.2996409998741,988.2996409998741,989.2813351999503,989.3145810998976,990.2810857000295,None,,,,,,,,,,,,,,,,,,,,,,,,,,,,,,001,2022-10-22_17h10.25.999,test9,2022.2.4,60.16959403426891,
,,,,,,,,2,nBack2Cond.xlsx,121,9,0.2,-0.2,None,2,135,,,,,,,,,,,,,0,1,1,1,0,15,15,15,,,,,,,,,,,,,,,,,,,,,,,,,,,,,,,,,,,,,,,,,990.2997771999799,990.2997771999799,990.2997771999799,990.2997771999799,990.2997771999799,990.2997771999799,990.2997771999799,990.2997771999799,990.2997771999799,990.2997771999799,991.2809009999037,991.3142931999173,992.2807671998162,None,,,,,,,,,,,,,,,,,,,,,,,,,,,,,,001,2022-10-22_17h10.25.999,test9,2022.2.4,60.16959403426891,
,,,,,,,,2,nBack2Cond.xlsx,121,9,0.2,-0.2,None,2,136,,,,,,,,,,,,,0,1,1,1,0,16,16,16,,,,,,,,,,,,,,,,,,,,,,,,,,,,,,,,,,,,,,,,,992.2986750998534,992.2986750998534,992.2986750998534,992.2986750998534,992.2986750998534,992.2986750998534,992.2986750998534,992.2986750998534,992.2986750998534,992.2986750998534,993.2812269998249,993.2974693998694,994.2804447999224,None,,,,,,,,,,,,,,,,,,,,,,,,,,,,,,001,2022-10-22_17h10.25.999,test9,2022.2.4,60.16959403426891,
,,,,,,,,2,nBack2Cond.xlsx,121,1,-0.2,0.2,None,2,137,,,,,,,,,,,,,0,1,1,1,0,17,17,17,,,,,,,,,,,,,,,,,,,,,,,,,,,,,,,,,,,,,,,,,994.298313899897,994.298313899897,994.298313899897,994.298313899897,994.298313899897,994.298313899897,994.298313899897,994.298313899897,994.298313899897,994.298313899897,995.2808761999477,995.2969109998085,996.2801697999239,None,,,,,,,,,,,,,,,,,,,,,,,,,,,,,,001,2022-10-22_17h10.25.999,test9,2022.2.4,60.16959403426891,
,,,,,,,,2,nBack2Cond.xlsx,121,3,0.2,0.2,None,2,138,,,,,,,,,,,,,0,1,1,1,0,18,18,18,,,,,,,,,,,,,,,,,,,,,,,,,,,,,,,,,,,,,,,,,996.2975047000218,996.2975047000218,996.2975047000218,996.2975047000218,996.2975047000218,996.2975047000218,996.2975047000218,996.2975047000218,996.2975047000218,996.2975047000218,997.2808187999763,997.2967164998408,998.2801175999921,None,,,,,,,,,,,,,,,,,,,,,,,,,,,,,,001,2022-10-22_17h10.25.999,test9,2022.2.4,60.16959403426891,
,,,,,,,,2,nBack2Cond.xlsx,121,5,0,0,None,2,139,,,,,,,,,,,,,0,1,1,1,0,19,19,19,,,,,,,,,,,,,,,,,,,,,,,,,,,,,,,,,,,,,,,,,998.2965843998827,998.2965843998827,998.2965843998827,998.2965843998827,998.2965843998827,998.2965843998827,998.2965843998827,998.2965843998827,998.2965843998827,998.2965843998827,999.2803801000118,999.2967407000251,1000.2796894998755,None,,,,,,,,,,,,,,,,,,,,,,,,,,,,,,001,2022-10-22_17h10.25.999,test9,2022.2.4,60.16959403426891,
,,,,,,,,2,nBack2Cond.xlsx,121,3,0.2,0.2,space,2,140,,,,,,,,,,,,,0,1,1,1,0,20,20,20,,,,,,,,,,,,,,,,,,,,,,,,,,,,,,,,,,,,,,,,,1000.29792419984,1000.29792419984,1000.29792419984,1000.29792419984,1000.29792419984,1000.29792419984,1000.29792419984,1000.29792419984,1000.29792419984,1000.29792419984,1001.2796592998784,1001.3128969999962,1002.2794778000098,None,,,,,,,,,,,,,,,,,,,,,,,,,,,,,,001,2022-10-22_17h10.25.999,test9,2022.2.4,60.16959403426891,
,,,,,,,,2,nBack2Cond.xlsx,121,4,-0.2,0,None,2,141,,,,,,,,,,,,,0,1,1,1,0,21,21,21,,,,,,,,,,,,,,,,,,,,,,,,,,,,,,,,,,,,,,,,,1002.2961071999744,1002.2961071999744,1002.2961071999744,1002.2961071999744,1002.2961071999744,1002.2961071999744,1002.2961071999744,1002.2961071999744,1002.2961071999744,1002.2961071999744,1003.2794959000312,1003.2959400999825,1004.2792539999355,None,,,,,,,,,,,,,,,,,,,,,,,,,,,,,,001,2022-10-22_17h10.25.999,test9,2022.2.4,60.16959403426891,
,,,,,,,,2,nBack2Cond.xlsx,121,7,-0.2,-0.2,None,2,142,,,,,,,,,,,,,0,1,1,1,0,22,22,22,,,,,,,,,,,,,,,,,,,,,,,,,,,,,,,,,,,,,,,,,1004.2976166999433,1004.2976166999433,1004.2976166999433,1004.2976166999433,1004.2976166999433,1004.2976166999433,1004.2976166999433,1004.2976166999433,1004.2976166999433,1004.2976166999433,1005.2792421998456,1005.3124631999526,1006.2789423000067,None,,,,,,,,,,,,,,,,,,,,,,,,,,,,,,001,2022-10-22_17h10.25.999,test9,2022.2.4,60.16959403426891,
,,,,,,,,2,nBack2Cond.xlsx,121,4,-0.2,0,space,2,143,,,,,,,,,,,,,0,1,1,1,0,23,23,23,,,,,,,,,,,,,,,,,,,,,,,,,,,,,,,,,,,,,,,,,1006.2968246999662,1006.2968246999662,1006.2968246999662,1006.2968246999662,1006.2968246999662,1006.2968246999662,1006.2968246999662,1006.2968246999662,1006.2968246999662,1006.2968246999662,1007.2791569998953,1007.2954125998076,1008.2786253998056,space,0.6239100999664515,,,,,,,,,,,,,,,,,,,,,,,,,,,,,001,2022-10-22_17h10.25.999,test9,2022.2.4,60.16959403426891,
,,,,,,,,2,nBack2Cond.xlsx,121,4,-0.2,0,None,2,144,,,,,,,,,,,,,0,1,1,1,0,24,24,24,,,,,,,,,,,,,,,,,,,,,,,,,,,,,,,,,,,,,,,,,1008.2966605999973,1008.2966605999973,1008.2966605999973,1008.2966605999973,1008.2966605999973,1008.2966605999973,1008.2966605999973,1008.2966605999973,1008.2966605999973,1008.2966605999973,1009.2785656999331,1009.3118084999733,1010.2785190998111,None,,,,,,,,,,,,,,,,,,,,,,,,,,,,,,001,2022-10-22_17h10.25.999,test9,2022.2.4,60.16959403426891,
,,,,,,,,2,nBack2Cond.xlsx,121,5,0,0,None,2,145,,,,,,,,,,,,,0,1,1,1,0,25,25,25,,,,,,,,,,,,,,,,,,,,,,,,,,,,,,,,,,,,,,,,,1010.295448299963,1010.295448299963,1010.295448299963,1010.295448299963,1010.295448299963,1010.295448299963,1010.295448299963,1010.295448299963,1010.295448299963,1010.295448299963,1011.2784398999065,1011.2951750999782,1012.2780440999195,None,,,,,,,,,,,,,,,,,,,,,,,,,,,,,,001,2022-10-22_17h10.25.999,test9,2022.2.4,60.16959403426891,
,,,,,,,,2,nBack2Cond.xlsx,121,2,0,0.2,None,2,146,,,,,,,,,,,,,0,1,1,1,0,26,26,26,,,,,,,,,,,,,,,,,,,,,,,,,,,,,,,,,,,,,,,,,1012.2948002999183,1012.2948002999183,1012.2948002999183,1012.2948002999183,1012.2948002999183,1012.2948002999183,1012.2948002999183,1012.2948002999183,1012.2948002999183,1012.2948002999183,1013.2785795999225,1013.2950022998266,1014.277977499878,None,,,,,,,,,,,,,,,,,,,,,,,,,,,,,,001,2022-10-22_17h10.25.999,test9,2022.2.4,60.16959403426891,
,,,,,,,,2,nBack2Cond.xlsx,121,6,0.2,0,None,2,147,,,,,,,,,,,,,0,1,1,1,0,27,27,27,,,,,,,,,,,,,,,,,,,,,,,,,,,,,,,,,,,,,,,,,1014.2951166999992,1014.2951166999992,1014.2951166999992,1014.2951166999992,1014.2951166999992,1014.2951166999992,1014.2951166999992,1014.2951166999992,1014.2951166999992,1014.2951166999992,1015.2779643998947,1015.2944996999577,1016.2775792998727,None,,,,,,,,,,,,,,,,,,,,,,,,,,,,,,001,2022-10-22_17h10.25.999,test9,2022.2.4,60.16959403426891,
,,,,,,,,2,nBack2Cond.xlsx,121,7,-0.2,-0.2,None,2,148,,,,,,,,,,,,,0,1,1,1,0,28,28,28,,,,,,,,,,,,,,,,,,,,,,,,,,,,,,,,,,,,,,,,,1016.2946795998141,1016.2946795998141,1016.2946795998141,1016.2946795998141,1016.2946795998141,1016.2946795998141,1016.2946795998141,1016.2946795998141,1016.2946795998141,1016.2946795998141,1017.2876144999173,1017.3034246999305,,None,,,,,,,,,,,,,,,,,,,,,,,,,,,,,,001,2022-10-22_17h10.25.999,test9,2022.2.4,60.16959403426891,
,,,,,,,,2,nBack2Cond.xlsx,121,6,0.2,0,space,2,149,,,,,,,,,,,,,0,1,1,1,0,29,29,29,,,,,,,,,,,,,,,,,,,,,,,,,,,,,,,,,,,,,,,,,1018.2944969998207,1018.2944969998207,1018.2944969998207,1018.2944969998207,1018.2944969998207,1018.2944969998207,1018.2944969998207,1018.2944969998207,1018.2944969998207,1018.2944969998207,1019.2773817998823,1019.293894100003,1020.2772065999452,space,0.7228866999503225,,,,,,,,,,,,,,,,,,,,,,,,,,,,,001,2022-10-22_17h10.25.999,test9,2022.2.4,60.16959403426891,
,,,,,,,,2,nBack2Cond.xlsx,121,8,0,-0.2,None,2,150,,,,,,,,,,,,,0,1,1,1,0,30,30,30,,,,,,,,,,,,,,,,,,,,,,,,,,,,,,,,,,,,,,,,,1020.2938331000041,1020.2938331000041,1020.2938331000041,1020.2938331000041,1020.2938331000041,1020.2938331000041,1020.2938331000041,1020.2938331000041,1020.2938331000041,1020.2938331000041,1021.2770614000037,1021.2935979999602,1022.2769006998278,None,,,,,,,,,,,,,,,,,,,,,,,,,,,,,,001,2022-10-22_17h10.25.999,test9,2022.2.4,60.16959403426891,
,,,,,,,,2,nBack2Cond.xlsx,121,2,0,0.2,None,2,151,,,,,,,,,,,,,0,1,1,1,0,31,31,31,,,,,,,,,,,,,,,,,,,,,,,,,,,,,,,,,,,,,,,,,1022.294465799816,1022.294465799816,1022.294465799816,1022.294465799816,1022.294465799816,1022.294465799816,1022.294465799816,1022.294465799816,1022.294465799816,1022.294465799816,1023.2767564000096,1023.3099858998321,1024.2766000998672,None,,,,,,,,,,,,,,,,,,,,,,,,,,,,,,001,2022-10-22_17h10.25.999,test9,2022.2.4,60.16959403426891,
,,,,,,,,2,nBack2Cond.xlsx,121,8,0,-0.2,space,2,152,,,,,,,,,,,,,0,1,1,1,0,32,32,32,,,,,,,,,,,,,,,,,,,,,,,,,,,,,,,,,,,,,,,,,1024.2933574998751,1024.2933574998751,1024.2933574998751,1024.2933574998751,1024.2933574998751,1024.2933574998751,1024.2933574998751,1024.2933574998751,1024.2933574998751,1024.2933574998751,1025.2787942998111,1025.2942112998571,,None,,,,,,,,,,,,,,,,,,,,,,,,,,,,,,001,2022-10-22_17h10.25.999,test9,2022.2.4,60.16959403426891,
,,,,,,,,2,nBack2Cond.xlsx,121,9,0.2,-0.2,None,2,153,,,,,,,,,,,,,0,1,1,1,0,33,33,33,,,,,,,,,,,,,,,,,,,,,,,,,,,,,,,,,,,,,,,,,1026.293182599824,1026.293182599824,1026.293182599824,1026.293182599824,1026.293182599824,1026.293182599824,1026.293182599824,1026.293182599824,1026.293182599824,1026.293182599824,1027.2761678998359,1027.2929275999777,1028.2760748998262,None,,,,,,,,,,,,,,,,,,,,,,,,,,,,,,001,2022-10-22_17h10.25.999,test9,2022.2.4,60.16959403426891,
,,,,,,,,2,nBack2Cond.xlsx,121,6,0.2,0,None,2,154,,,,,,,,,,,,,0,1,1,1,0,34,34,34,,,,,,,,,,,,,,,,,,,,,,,,,,,,,,,,,,,,,,,,,1028.2933382999618,1028.2933382999618,1028.2933382999618,1028.2933382999618,1028.2933382999618,1028.2933382999618,1028.2933382999618,1028.2933382999618,1028.2933382999618,1028.2933382999618,1029.275896999985,1029.2926605998073,1030.2758796999697,None,,,,,,,,,,,,,,,,,,,,,,,,,,,,,,001,2022-10-22_17h10.25.999,test9,2022.2.4,60.16959403426891,
,,,,,,,,2,nBack2Cond.xlsx,121,9,0.2,-0.2,space,2,155,,,,,,,,,,,,,0,1,1,1,0,35,35,35,,,,,,,,,,,,,,,,,,,,,,,,,,,,,,,,,,,,,,,,,1030.2928353999741,1030.2928353999741,1030.2928353999741,1030.2928353999741,1030.2928353999741,1030.2928353999741,1030.2928353999741,1030.2928353999741,1030.2928353999741,1030.2928353999741,1031.275787099963,1031.2922825999558,1032.2756178998388,space,0.77680359990336,,,,,,,,,,,,,,,,,,,,,,,,,,,,,001,2022-10-22_17h10.25.999,test9,2022.2.4,60.16959403426891,
,,,,,,,,2,nBack2Cond.xlsx,121,4,-0.2,0,None,2,156,,,,,,,,,,,,,0,1,1,1,0,36,36,36,,,,,,,,,,,,,,,,,,,,,,,,,,,,,,,,,,,,,,,,,1032.2933447998948,1032.2933447998948,1032.2933447998948,1032.2933447998948,1032.2933447998948,1032.2933447998948,1032.2933447998948,1032.2933447998948,1032.2933447998948,1032.2933447998948,1033.2756117000245,1033.3088515999261,1034.275589399971,None,,,,,,,,,,,,,,,,,,,,,,,,,,,,,,001,2022-10-22_17h10.25.999,test9,2022.2.4,60.16959403426891,
,,,,,,,,2,nBack2Cond.xlsx,121,3,0.2,0.2,None,2,157,,,,,,,,,,,,,0,1,1,1,0,37,37,37,,,,,,,,,,,,,,,,,,,,,,,,,,,,,,,,,,,,,,,,,1034.2936180999968,1034.2936180999968,1034.2936180999968,1034.2936180999968,1034.2936180999968,1034.2936180999968,1034.2936180999968,1034.2936180999968,1034.2936180999968,1034.2936180999968,1035.2751076000277,1035.3084776999895,1036.2751256998163,None,,,,,,,,,,,,,,,,,,,,,,,,,,,,,,001,2022-10-22_17h10.25.999,test9,2022.2.4,60.16959403426891,
,,,,,,,,2,nBack2Cond.xlsx,121,8,0,-0.2,None,2,158,,,,,,,,,,,,,0,1,1,1,0,38,38,38,,,,,,,,,,,,,,,,,,,,,,,,,,,,,,,,,,,,,,,,,1036.2921480999794,1036.2921480999794,1036.2921480999794,1036.2921480999794,1036.2921480999794,1036.2921480999794,1036.2921480999794,1036.2921480999794,1036.2921480999794,1036.2921480999794,1037.27494929987,1037.2916002999991,1038.2748220998328,None,,,,,,,,,,,,,,,,,,,,,,,,,,,,,,001,2022-10-22_17h10.25.999,test9,2022.2.4,60.16959403426891,
,,,,,,,,2,nBack2Cond.xlsx,121,3,0.2,0.2,space,2,159,,,,,,,,,,,,,0,1,1,1,0,39,39,39,,,,,,,,,,,,,,,,,,,,,,,,,,,,,,,,,,,,,,,,,1038.2927017000038,1038.2927017000038,1038.2927017000038,1038.2927017000038,1038.2927017000038,1038.2927017000038,1038.2927017000038,1038.2927017000038,1038.2927017000038,1038.2927017000038,1039.2747372000013,1039.307930199895,1040.2745455999393,space,0.7005535999778658,,,,,,,,,,,,,,,,,,,,,,,,,,,,,001,2022-10-22_17h10.25.999,test9,2022.2.4,60.16959403426891,
,,,,,,,,2,nBack2Cond.xlsx,121,1,-0.2,0.2,None,2,160,,,,,,,,,,,,,0,1,1,1,0,40,40,40,,,,,,,,,,,,,,,,,,,,,,,,,,,,,,,,,,,,,,,,,1040.2909905998968,1040.2909905998968,1040.2909905998968,1040.2909905998968,1040.2909905998968,1040.2909905998968,1040.2909905998968,1040.2909905998968,1040.2909905998968,1040.2909905998968,1041.274544699816,1041.2909973999485,1042.2742897998542,None,,,,,,,,,,,,,,,,,,,,,,,,,,,,,,001,2022-10-22_17h10.25.999,test9,2022.2.4,60.16959403426891,
,,,,,,,,2,nBack2Cond.xlsx,121,4,-0.2,0,None,2,161,,,,,,,,,,,,,0,1,1,1,0,41,41,41,,,,,,,,,,,,,,,,,,,,,,,,,,,,,,,,,,,,,,,,,1042.2909899998922,1042.2909899998922,1042.2909899998922,1042.2909899998922,1042.2909899998922,1042.2909899998922,1042.2909899998922,1042.2909899998922,1042.2909899998922,1042.2909899998922,1043.2742363000289,1043.2911679998506,1044.2742023998871,None,,,,,,,,,,,,,,,,,,,,,,,,,,,,,,001,2022-10-22_17h10.25.999,test9,2022.2.4,60.16959403426891,
,,,,,,,,2,nBack2Cond.xlsx,121,2,0,0.2,None,2,162,,,,,,,,,,,,,0,1,1,1,0,42,42,42,,,,,,,,,,,,,,,,,,,,,,,,,,,,,,,,,,,,,,,,,1044.2906129998155,1044.2906129998155,1044.2906129998155,1044.2906129998155,1044.2906129998155,1044.2906129998155,1044.2906129998155,1044.2906129998155,1044.2906129998155,1044.2906129998155,1045.2740670000203,1045.290561700007,1046.2737938000355,None,,,,,,,,,,,,,,,,,,,,,,,,,,,,,,001,2022-10-22_17h10.25.999,test9,2022.2.4,60.16959403426891,
,,,,,,,,2,nBack2Cond.xlsx,121,4,-0.2,0,space,2,163,,,,,,,,,,,,,0,1,1,1,0,43,43,43,,,,,,,,,,,,,,,,,,,,,,,,,,,,,,,,,,,,,,,,,1046.2928439998068,1046.2928439998068,1046.2928439998068,1046.2928439998068,1046.2928439998068,1046.2928439998068,1046.2928439998068,1046.2928439998068,1046.2928439998068,1046.2928439998068,1047.274252400035,1047.3068677999545,1048.2733930000104,None,,,,,,,,,,,,,,,,,,,,,,,,,,,,,,001,2022-10-22_17h10.25.999,test9,2022.2.4,60.16959403426891,
,,,,,,,,2,nBack2Cond.xlsx,121,8,0,-0.2,None,2,164,,,,,,,,,,,,,0,1,1,1,0,44,44,44,,,,,,,,,,,,,,,,,,,,,,,,,,,,,,,,,,,,,,,,,1048.3093032999896,1048.3093032999896,1048.3093032999896,1048.3093032999896,1048.3093032999896,1048.3093032999896,1048.3093032999896,1048.3093032999896,1048.3093032999896,1048.3093032999896,1049.2733390999492,1049.3233472998254,1050.2731888999697,None,,,,,,,,,,,,,,,,,,,,,,,,,,,,,,001,2022-10-22_17h10.25.999,test9,2022.2.4,60.16959403426891,
,,,,,,,,2,nBack2Cond.xlsx,121,5,0,0,None,2,165,,,,,,,,,,,,,0,1,1,1,0,45,45,45,,,,,,,,,,,,,,,,,,,,,,,,,,,,,,,,,,,,,,,,,1050.307631699834,1050.307631699834,1050.307631699834,1050.307631699834,1050.307631699834,1050.307631699834,1050.307631699834,1050.307631699834,1050.307631699834,1050.307631699834,1051.2730795999523,1051.3067930999678,1052.2730625998229,None,,,,,,,,,,,,,,,,,,,,,,,,,,,,,,001,2022-10-22_17h10.25.999,test9,2022.2.4,60.16959403426891,
,,,,,,,,2,nBack2Cond.xlsx,121,1,-0.2,0.2,None,2,166,,,,,,,,,,,,,0,1,1,1,0,46,46,46,,,,,,,,,,,,,,,,,,,,,,,,,,,,,,,,,,,,,,,,,1052.3074208998587,1052.3074208998587,1052.3074208998587,1052.3074208998587,1052.3074208998587,1052.3074208998587,1052.3074208998587,1052.3074208998587,1052.3074208998587,1052.3074208998587,1053.2894348998088,1053.3228888998274,1054.2892679998185,None,,,,,,,,,,,,,,,,,,,,,,,,,,,,,,001,2022-10-22_17h10.25.999,test9,2022.2.4,60.16959403426891,
,,,,,,,,2,nBack2Cond.xlsx,121,5,0,0,space,2,167,,,,,,,,,,,,,0,1,1,1,0,47,47,47,,,,,,,,,,,,,,,,,,,,,,,,,,,,,,,,,,,,,,,,,1054.3068844999652,1054.3068844999652,1054.3068844999652,1054.3068844999652,1054.3068844999652,1054.3068844999652,1054.3068844999652,1054.3068844999652,1054.3068844999652,1054.3068844999652,1055.2895374000072,1055.3058490999974,1056.2892594998702,None,,,,,,,,,,,,,,,,,,,,,,,,,,,,,,001,2022-10-22_17h10.25.999,test9,2022.2.4,60.16959403426891,
,,,,,,,,2,nBack2Cond.xlsx,121,3,0.2,0.2,None,2,168,,,,,,,,,,,,,0,1,1,1,0,48,48,48,,,,,,,,,,,,,,,,,,,,,,,,,,,,,,,,,,,,,,,,,1056.3065996000078,1056.3065996000078,1056.3065996000078,1056.3065996000078,1056.3065996000078,1056.3065996000078,1056.3065996000078,1056.3065996000078,1056.3065996000078,1056.3065996000078,1057.2888866998255,1057.322410200024,1058.2889264000114,None,,,,,,,,,,,,,,,,,,,,,,,,,,,,,,001,2022-10-22_17h10.25.999,test9,2022.2.4,60.16959403426891,
,,,,,,,,2,nBack2Cond.xlsx,121,6,0.2,0,None,2,169,,,,,,,,,,,,,0,1,1,1,0,49,49,49,,,,,,,,,,,,,,,,,,,,,,,,,,,,,,,,,,,,,,,,,1058.3075327000115,1058.3075327000115,1058.3075327000115,1058.3075327000115,1058.3075327000115,1058.3075327000115,1058.3075327000115,1058.3075327000115,1058.3075327000115,1058.3075327000115,1059.2888807000127,1059.322010200005,1060.2885503999423,None,,,,,,,,,,,,,,,,,,,,,,,,,,,,,,001,2022-10-22_17h10.25.999,test9,2022.2.4,60.16959403426891,
,,,,,,,,2,nBack2Cond.xlsx,121,1,-0.2,0.2,None,2,170,,,,,,,,,,,,,0,1,1,1,0,50,50,50,,,,,,,,,,,,,,,,,,,,,,,,,,,,,,,,,,,,,,,,,1060.306429799879,1060.306429799879,1060.306429799879,1060.306429799879,1060.306429799879,1060.306429799879,1060.306429799879,1060.306429799879,1060.306429799879,1060.306429799879,1061.2885016000364,1061.3218115998898,1062.2884235000238,None,,,,,,,,,,,,,,,,,,,,,,,,,,,,,,001,2022-10-22_17h10.25.999,test9,2022.2.4,60.16959403426891,
,,,,,,,,2,nBack2Cond.xlsx,121,3,0.2,0.2,None,2,171,,,,,,,,,,,,,0,1,1,1,0,51,51,51,,,,,,,,,,,,,,,,,,,,,,,,,,,,,,,,,,,,,,,,,1062.3048933998216,1062.3048933998216,1062.3048933998216,1062.3048933998216,1062.3048933998216,1062.3048933998216,1062.3048933998216,1062.3048933998216,1062.3048933998216,1062.3048933998216,1063.2882656999864,1063.3048857999966,1064.2880327999592,None,,,,,,,,,,,,,,,,,,,,,,,,,,,,,,001,2022-10-22_17h10.25.999,test9,2022.2.4,60.16959403426891,
,,,,,,,,2,nBack2Cond.xlsx,121,1,-0.2,0.2,space,2,172,,,,,,,,,,,,,0,1,1,1,0,52,52,52,,,,,,,,,,,,,,,,,,,,,,,,,,,,,,,,,,,,,,,,,1064.3058115998283,1064.3058115998283,1064.3058115998283,1064.3058115998283,1064.3058115998283,1064.3058115998283,1064.3058115998283,1064.3058115998283,1064.3058115998283,1064.3058115998283,1065.2878258998971,1065.3211077998858,1066.2876367999706,None,,,,,,,,,,,,,,,,,,,,,,,,,,,,,,001,2022-10-22_17h10.25.999,test9,2022.2.4,60.16959403426891,
,,,,,,,,2,nBack2Cond.xlsx,121,2,0,0.2,None,2,173,,,,,,,,,,,,,0,1,1,1,0,53,53,53,,,,,,,,,,,,,,,,,,,,,,,,,,,,,,,,,,,,,,,,,1066.3044552998617,1066.3044552998617,1066.3044552998617,1066.3044552998617,1066.3044552998617,1066.3044552998617,1066.3044552998617,1066.3044552998617,1066.3044552998617,1066.3044552998617,1067.2888626998756,1067.3042915998958,,None,,,,,,,,,,,,,,,,,,,,,,,,,,,,,,001,2022-10-22_17h10.25.999,test9,2022.2.4,60.16959403426891,
,,,,,,,,2,nBack2Cond.xlsx,121,1,-0.2,0.2,space,2,174,,,,,,,,,,,,,0,1,1,1,0,54,54,54,,,,,,,,,,,,,,,,,,,,,,,,,,,,,,,,,,,,,,,,,1068.3045564999338,1068.3045564999338,1068.3045564999338,1068.3045564999338,1068.3045564999338,1068.3045564999338,1068.3045564999338,1068.3045564999338,1068.3045564999338,1068.3045564999338,1069.2873764999676,1069.304441699991,1070.2872456000187,space,0.6605074000544846,,,,,,,,,,,,,,,,,,,,,,,,,,,,,001,2022-10-22_17h10.25.999,test9,2022.2.4,60.16959403426891,
,,,,,,,,2,nBack2Cond.xlsx,121,1,-0.2,0.2,None,2,175,,,,,,,,,,,,,0,1,1,1,0,55,55,55,,,,,,,,,,,,,,,,,,,,,,,,,,,,,,,,,,,,,,,,,1070.3047489998862,1070.3047489998862,1070.3047489998862,1070.3047489998862,1070.3047489998862,1070.3047489998862,1070.3047489998862,1070.3047489998862,1070.3047489998862,1070.3047489998862,1071.2883584999945,1071.3045955998823,1072.2870409998577,None,,,,,,,,,,,,,,,,,,,,,,,,,,,,,,001,2022-10-22_17h10.25.999,test9,2022.2.4,60.16959403426891,
,,,,,,,,2,nBack2Cond.xlsx,121,7,-0.2,-0.2,None,2,176,,,,,,,,,,,,,0,1,1,1,0,56,56,56,,,,,,,,,,,,,,,,,,,,,,,,,,,,,,,,,,,,,,,,,1072.30498359981,1072.30498359981,1072.30498359981,1072.30498359981,1072.30498359981,1072.30498359981,1072.30498359981,1072.30498359981,1072.30498359981,1072.30498359981,1073.2870264998637,1073.320303699933,1074.286714799935,None,,,,,,,,,,,,,,,,,,,,,,,,,,,,,,001,2022-10-22_17h10.25.999,test9,2022.2.4,60.16959403426891,
,,,,,,,,2,nBack2Cond.xlsx,121,2,0,0.2,None,2,177,,,,,,,,,,,,,0,1,1,1,0,57,57,57,,,,,,,,,,,,,,,,,,,,,,,,,,,,,,,,,,,,,,,,,1074.3045475999825,1074.3045475999825,1074.3045475999825,1074.3045475999825,1074.3045475999825,1074.3045475999825,1074.3045475999825,1074.3045475999825,1074.3045475999825,1074.3045475999825,1075.287356399931,1075.3035257998854,1076.286525100004,None,,,,,,,,,,,,,,,,,,,,,,,,,,,,,,001,2022-10-22_17h10.25.999,test9,2022.2.4,60.16959403426891,
,,,,,,,,2,nBack2Cond.xlsx,121,7,-0.2,-0.2,space,2,178,,,,,,,,,,,,,0,1,1,1,0,58,58,58,,,,,,,,,,,,,,,,,,,,,,,,,,,,,,,,,,,,,,,,,1076.3038734998554,1076.3038734998554,1076.3038734998554,1076.3038734998554,1076.3038734998554,1076.3038734998554,1076.3038734998554,1076.3038734998554,1076.3038734998554,1076.3038734998554,1077.2862831000239,1077.303111899877,1078.2861536999699,None,,,,,,,,,,,,,,,,,,,,,,,,,,,,,,001,2022-10-22_17h10.25.999,test9,2022.2.4,60.16959403426891,
,,,,,,,,2,nBack2Cond.xlsx,121,6,0.2,0,None,2,179,,,,,,,,,,,,,0,1,1,1,0,59,59,59,,,,,,,,,,,,,,,,,,,,,,,,,,,,,,,,,,,,,,,,,1078.3036934998818,1078.3036934998818,1078.3036934998818,1078.3036934998818,1078.3036934998818,1078.3036934998818,1078.3036934998818,1078.3036934998818,1078.3036934998818,1078.3036934998818,1079.2863400999922,1079.3026113000233,1080.286102199927,None,,,,,,,,,,,,,,,,,,,,,,,,,,,,,,001,2022-10-22_17h10.25.999,test9,2022.2.4,60.16959403426891,
,,,,,,,,2,nBack2Cond.xlsx,121,6,0.2,0,None,2,180,,,,,,,,,,,,,0,1,1,1,0,60,60,60,,,,,,,,,,,,,,,,,,,,,,,,,,,,,,,,,,,,,,,,,1080.303753199987,1080.303753199987,1080.303753199987,1080.303753199987,1080.303753199987,1080.303753199987,1080.303753199987,1080.303753199987,1080.303753199987,1080.303753199987,1081.2858817998786,1081.3192357998341,1082.2856793999672,None,,,,,,,,,,,,,,,,,,,,,,,,,,,,,,001,2022-10-22_17h10.25.999,test9,2022.2.4,60.16959403426891,
,,,,,,,,2,nBack2Cond.xlsx,121,7,-0.2,-0.2,None,2,181,,,,,,,,,,,,,0,1,1,1,0,61,61,61,,,,,,,,,,,,,,,,,,,,,,,,,,,,,,,,,,,,,,,,,1082.302990600001,1082.302990600001,1082.302990600001,1082.302990600001,1082.302990600001,1082.302990600001,1082.302990600001,1082.302990600001,1082.302990600001,1082.302990600001,1083.2855944000185,1083.3023059999105,1084.286894199904,None,,,,,,,,,,,,,,,,,,,,,,,,,,,,,,001,2022-10-22_17h10.25.999,test9,2022.2.4,60.16959403426891,
,,,,,,,,2,nBack2Cond.xlsx,121,2,0,0.2,None,2,182,,,,,,,,,,,,,0,1,1,1,0,62,62,62,,,,,,,,,,,,,,,,,,,,,,,,,,,,,,,,,,,,,,,,,1084.3037866000086,1084.3037866000086,1084.3037866000086,1084.3037866000086,1084.3037866000086,1084.3037866000086,1084.3037866000086,1084.3037866000086,1084.3037866000086,1084.3037866000086,1085.2853413999546,1085.318698699819,1086.285163699882,None,,,,,,,,,,,,,,,,,,,,,,,,,,,,,,001,2022-10-22_17h10.25.999,test9,2022.2.4,60.16959403426891,
,,,,,,,,2,nBack2Cond.xlsx,121,7,-0.2,-0.2,space,2,183,,,,,,,,,,,,,0,1,1,1,0,63,63,63,,,,,,,,,,,,,,,,,,,,,,,,,,,,,,,,,,,,,,,,,1086.3043268998154,1086.3043268998154,1086.3043268998154,1086.3043268998154,1086.3043268998154,1086.3043268998154,1086.3043268998154,1086.3043268998154,1086.3043268998154,1086.3043268998154,1087.2851314998697,1087.3183440999128,1088.284996900009,None,,,,,,,,,,,,,,,,,,,,,,,,,,,,,,001,2022-10-22_17h10.25.999,test9,2022.2.4,60.16959403426891,
,,,,,,,,2,nBack2Cond.xlsx,121,1,-0.2,0.2,None,2,184,,,,,,,,,,,,,0,1,1,1,0,64,64,64,,,,,,,,,,,,,,,,,,,,,,,,,,,,,,,,,,,,,,,,,1088.301644799998,1088.301644799998,1088.301644799998,1088.301644799998,1088.301644799998,1088.301644799998,1088.301644799998,1088.301644799998,1088.301644799998,1088.301644799998,1089.2849220000207,1089.3015103000216,1090.2847599999513,None,,,,,,,,,,,,,,,,,,,,,,,,,,,,,,001,2022-10-22_17h10.25.999,test9,2022.2.4,60.16959403426891,
,,,,,,,,2,nBack2Cond.xlsx,121,1,-0.2,0.2,None,2,185,,,,,,,,,,,,,0,1,1,1,0,65,65,65,,,,,,,,,,,,,,,,,,,,,,,,,,,,,,,,,,,,,,,,,1090.3023459999822,1090.3023459999822,1090.3023459999822,1090.3023459999822,1090.3023459999822,1090.3023459999822,1090.3023459999822,1090.3023459999822,1090.3023459999822,1090.3023459999822,1091.2844564998522,1091.3178004999645,1092.284476700006,None,,,,,,,,,,,,,,,,,,,,,,,,,,,,,,001,2022-10-22_17h10.25.999,test9,2022.2.4,60.16959403426891,
,,,,,,,,2,nBack2Cond.xlsx,121,2,0,0.2,None,2,186,,,,,,,,,,,,,0,1,1,1,0,66,66,66,,,,,,,,,,,,,,,,,,,,,,,,,,,,,,,,,,,,,,,,,1092.3032052998897,1092.3032052998897,1092.3032052998897,1092.3032052998897,1092.3032052998897,1092.3032052998897,1092.3032052998897,1092.3032052998897,1092.3032052998897,1092.3032052998897,1093.28435179987,1093.317591900006,1094.2841898000333,None,,,,,,,,,,,,,,,,,,,,,,,,,,,,,,001,2022-10-22_17h10.25.999,test9,2022.2.4,60.16959403426891,
