eotrial,eocinstr,eocmarker1,eocmarker2,eocmarker3,eocmarker4,itemnumber,itemtext,nbackInstruction,condsFile,square,loc1,loc2,corrAns,trialsNum,trialNum,eoecloop.thisRepN,eoecloop.thisTrialN,eoecloop.thisN,eoecloop.thisIndex,wakeup.thisRepN,wakeup.thisTrialN,wakeup.thisN,wakeup.thisIndex,questions.thisRepN,questions.thisTrialN,questions.thisN,questions.thisIndex,nb_taskloop.thisRepN,nb_taskloop.thisTrialN,nb_taskloop.thisN,nb_taskloop.thisIndex,nb_trials.thisRepN,nb_trials.thisTrialN,nb_trials.thisN,nb_trials.thisIndex,key_resp_3.started,text_4.started,mouse_2.started,h_eoec.started,key_resp_3.keys,key_resp_3.rt,mouse_2.x,mouse_2.y,mouse_2.leftButton,mouse_2.midButton,mouse_2.rightButton,text_2.started,key_resp.started,key_resp.keys,key_resp.rt,text_8.started,key_resp_10.started,key_resp_10.keys,key_resp_10.rt,img_whte.started,img_whte.stopped,img_black.started,img_black.stopped,text_5.started,key_resp_4.started,mouse.started,h_arsq.started,key_resp_4.keys,key_resp_4.rt,mouse.x,mouse.y,mouse.leftButton,mouse.midButton,mouse.rightButton,slider.response,slider.rt,key_resp_9.keys,instrText.started,h_nback.started,instrResp.started,instrImg.started,trialResp.keys,participant,session,date,expName,psychopyVersion,frameRate,
,,,,,,,,,,,,,,,,,,,,,,,,,,,,,,,,,,,,11.457145299995318,11.457145299995318,3.4599972423166037e-05,11.457145299995318,space,0.6728147999965586,,,,,,,,,,,,,,,,,,,,,,,,,,,,,,,,,,,,,,001,2022-09-22_09h41.16.748,test8,2022.2.4,59.986563008828796,
,,,,,,,,,,,,,,,,,,,,,,,,,,,,,,,,,,,,,,,,,,0.2074074074074074,0.000925925925925926,0,0,0,,,,,,,,,,,,,,,,,,,,,,,,,,,,,,,,,001,2022-09-22_09h41.16.748,test8,2022.2.4,59.986563008828796,
1,eyes open,11,12,13,14,,,,,,,,,,,0,0,0,0,,,,,,,,,,,,,,,,,,,,,,,,,,,,12.181251799978781,12.181251799978781,s,0.43701860000146553,12.639714899996761,12.639714899996761,s,0.30762450001202524,,,,,,,,,,,,,,,,,,,,,,,,,001,2022-09-22_09h41.16.748,test8,2022.2.4,59.986563008828796,
2,eyes closed,21,22,23,24,,,,,,,,,,,0,1,1,1,,,,,,,,,,,,,,,,,,,,,,,,,,,,12.977332299982663,12.977332299982663,s,0.33484160000807606,13.339355999982217,13.339355999982217,s,0.23818169999867678,,,,,,,,,,,,,,,,,,,,,,,,,001,2022-09-22_09h41.16.748,test8,2022.2.4,59.986563008828796,
,,,,,,,,,,,,,,,,,,,,0,0,0,0,,,,,,,,,,,,,,,,,,,,,,,,,,,,,,,,13.605960799992317,13.806220800004667,13.806220800004667,14.006200200004969,,,,,,,,,,,,,,,,,,,,,001,2022-09-22_09h41.16.748,test8,2022.2.4,59.986563008828796,
,,,,,,,,,,,,,,,,,,,,1,0,1,0,,,,,,,,,,,,,,,,,,,,,,,,,,,,,,,,14.006200200004969,14.206189199991059,14.206189199991059,14.406340299989097,,,,,,,,,,,,,,,,,,,,,001,2022-09-22_09h41.16.748,test8,2022.2.4,59.986563008828796,
,,,,,,,,,,,,,,,,,,,,2,0,2,0,,,,,,,,,,,,,,,,,,,,,,,,,,,,,,,,14.406340299989097,14.606217499997001,14.606217499997001,14.806303699995624,,,,,,,,,,,,,,,,,,,,,001,2022-09-22_09h41.16.748,test8,2022.2.4,59.986563008828796,
,,,,,,,,,,,,,,,,,,,,3,0,3,0,,,,,,,,,,,,,,,,,,,,,,,,,,,,,,,,14.806303699995624,15.006166299979668,15.006166299979668,15.206520599982468,,,,,,,,,,,,,,,,,,,,,001,2022-09-22_09h41.16.748,test8,2022.2.4,59.986563008828796,
,,,,,,,,,,,,,,,,,,,,,,,,,,,,,,,,,,,,,,,,,,,,,,,,,,,,,,,,,,,15.206520599982468,15.206520599982468,-0.00011320007615722716,15.206520599982468,s,0.4706331999914255,,,,,,,,,,,,,,,001,2022-09-22_09h41.16.748,test8,2022.2.4,59.986563008828796,
,,,,,,,,,,,,,,,,,,,,,,,,,,,,,,,,,,,,,,,,,,,,,,,,,,,,,,,,,,,,,,,,,0.2074074074074074,0.000925925925925926,0,0,0,,,,,,,,,,001,2022-09-22_09h41.16.748,test8,2022.2.4,59.986563008828796,
,,,,,,24,I felt pain,,,,,,,,,,,,,,,,,0,0,0,23,,,,,,,,,,,,,,,,,,,,,,,,,,,,,,,,,,,,,,,,,,,None,None,None,,,,,,,001,2022-09-22_09h41.16.748,test8,2022.2.4,59.986563008828796,
,,,,,,3,I had difficulty holding on to my thoughts,,,,,,,,,,,,,,,,,0,1,1,2,,,,,,,,,,,,,,,,,,,,,,,,,,,,,,,,,,,,,,,,,,,None,None,None,,,,,,,001,2022-09-22_09h41.16.748,test8,2022.2.4,59.986563008828796,
,,,,,,35,I was able to rate the statements,,,,,,,,,,,,,,,,,0,2,2,34,,,,,,,,,,,,,,,,,,,,,,,,,,,,,,,,,,,,,,,,,,,None,None,None,,,,,,,001,2022-09-22_09h41.16.748,test8,2022.2.4,59.986563008828796,
,,,,,,26,I thought in images,,,,,,,,,,,,,,,,,0,3,3,25,,,,,,,,,,,,,,,,,,,,,,,,,,,,,,,,,,,,,,,,,,,None,None,None,,,,,,,001,2022-09-22_09h41.16.748,test8,2022.2.4,59.986563008828796,
,,,,,,6,I thought about people I like,,,,,,,,,,,,,,,,,0,4,4,5,,,,,,,,,,,,,,,,,,,,,,,,,,,,,,,,,,,,,,,,,,,None,None,None,,,,,,,001,2022-09-22_09h41.16.748,test8,2022.2.4,59.986563008828796,
,,,,,,22,I felt ill,,,,,,,,,,,,,,,,,0,5,5,21,,,,,,,,,,,,,,,,,,,,,,,,,,,,,,,,,,,,,,,,,,,None,None,None,,,,,,,001,2022-09-22_09h41.16.748,test8,2022.2.4,59.986563008828796,
,,,,,,31,I had difficulty remembering my thoughts,,,,,,,,,,,,,,,,,0,6,6,30,,,,,,,,,,,,,,,,,,,,,,,,,,,,,,,,,,,,,,,,,,,None,None,None,,,,,,,001,2022-09-22_09h41.16.748,test8,2022.2.4,59.986563008828796,
,,,,,,30,I imagined talking to myself,,,,,,,,,,,,,,,,,0,7,7,29,,,,,,,,,,,,,,,,,,,,,,,,,,,,,,,,,,,,,,,,,,,None,None,None,,,,,,,001,2022-09-22_09h41.16.748,test8,2022.2.4,59.986563008828796,
,,,,,,25,I pictured events,,,,,,,,,,,,,,,,,0,8,8,24,,,,,,,,,,,,,,,,,,,,,,,,,,,,,,,,,,,,,,,,,,,None,None,None,,,,,,,001,2022-09-22_09h41.16.748,test8,2022.2.4,59.986563008828796,
,,,,,,23,I thought about my health,,,,,,,,,,,,,,,,,0,9,9,22,,,,,,,,,,,,,,,,,,,,,,,,,,,,,,,,,,,,,,,,,,,None,None,None,,,,,,,001,2022-09-22_09h41.16.748,test8,2022.2.4,59.986563008828796,
,,,,,,9,I thought about myself,,,,,,,,,,,,,,,,,0,10,10,8,,,,,,,,,,,,,,,,,,,,,,,,,,,,,,,,,,,,,,,,,,,None,None,None,,,,,,,001,2022-09-22_09h41.16.748,test8,2022.2.4,59.986563008828796,
,,,,,,17,I felt relaxed,,,,,,,,,,,,,,,,,0,11,11,16,,,,,,,,,,,,,,,,,,,,,,,,,,,,,,,,,,,,,,,,,,,None,None,None,,,,,,,001,2022-09-22_09h41.16.748,test8,2022.2.4,59.986563008828796,
,,,,,,29,I thought in words,,,,,,,,,,,,,,,,,0,12,12,28,,,,,,,,,,,,,,,,,,,,,,,,,,,,,,,,,,,,,,,,,,,None,None,None,,,,,,,001,2022-09-22_09h41.16.748,test8,2022.2.4,59.986563008828796,
,,,,,,20,I thought about my breathing,,,,,,,,,,,,,,,,,0,13,13,19,,,,,,,,,,,,,,,,,,,,,,,,,,,,,,,,,,,,,,,,,,,None,None,None,,,,,,,001,2022-09-22_09h41.16.748,test8,2022.2.4,59.986563008828796,
,,,,,,2,I had rapidly switching thoughts,,,,,,,,,,,,,,,,,0,14,14,1,,,,,,,,,,,,,,,,,,,,,,,,,,,,,,,,,,,,,,,,,,,None,None,None,,,,,,,001,2022-09-22_09h41.16.748,test8,2022.2.4,59.986563008828796,
,,,,,,8,I thought about my behavior,,,,,,,,,,,,,,,,,0,15,15,7,,,,,,,,,,,,,,,,,,,,,,,,,,,,,,,,,,,,,,,,,,,None,None,None,,,,,,,001,2022-09-22_09h41.16.748,test8,2022.2.4,59.986563008828796,
,,,,,,32,I had difficulty remembering my feelings,,,,,,,,,,,,,,,,,0,16,16,31,,,,,,,,,,,,,,,,,,,,,,,,,,,,,,,,,,,,,,,,,,,None,None,None,,,,,,,001,2022-09-22_09h41.16.748,test8,2022.2.4,59.986563008828796,
,,,,,,5,I placed myself in other peoples shoes,,,,,,,,,,,,,,,,,0,17,17,4,,,,,,,,,,,,,,,,,,,,,,,,,,,,,,,,,,,,,,,,,,,None,None,None,,,,,,,001,2022-09-22_09h41.16.748,test8,2022.2.4,59.986563008828796,
,,,,,,7,I thought about my feelings,,,,,,,,,,,,,,,,,0,18,18,6,,,,,,,,,,,,,,,,,,,,,,,,,,,,,,,,,,,,,,,,,,,None,None,None,,,,,,,001,2022-09-22_09h41.16.748,test8,2022.2.4,59.986563008828796,
,,,,,,4,I thought about others,,,,,,,,,,,,,,,,,0,19,19,3,,,,,,,,,,,,,,,,,,,,,,,,,,,,,,,,,,,,,,,,,,,None,None,None,,,,,,,001,2022-09-22_09h41.16.748,test8,2022.2.4,59.986563008828796,
,,,,,,10,I thought about things I need to do,,,,,,,,,,,,,,,,,0,20,20,9,,,,,,,,,,,,,,,,,,,,,,,,,,,,,,,,,,,,,,,,,,,None,None,None,,,,,,,001,2022-09-22_09h41.16.748,test8,2022.2.4,59.986563008828796,
,,,,,,14,I felt sleepy,,,,,,,,,,,,,,,,,0,21,21,13,,,,,,,,,,,,,,,,,,,,,,,,,,,,,,,,,,,,,,,,,,,None,None,None,,,,,,,001,2022-09-22_09h41.16.748,test8,2022.2.4,59.986563008828796,
,,,,,,21,I thought about my heartbeat,,,,,,,,,,,,,,,,,0,22,22,20,,,,,,,,,,,,,,,,,,,,,,,,,,,,,,,,,,,,,,,,,,,None,None,None,,,,,,,001,2022-09-22_09h41.16.748,test8,2022.2.4,59.986563008828796,
,,,,,,18,I felt happy,,,,,,,,,,,,,,,,,0,23,23,17,,,,,,,,,,,,,,,,,,,,,,,,,,,,,,,,,,,,,,,,,,,None,None,None,,,,,,,001,2022-09-22_09h41.16.748,test8,2022.2.4,59.986563008828796,
,,,,,,34,I had my eyes closed,,,,,,,,,,,,,,,,,0,24,24,33,,,,,,,,,,,,,,,,,,,,,,,,,,,,,,,,,,,,,,,,,,,None,None,None,,,,,,,001,2022-09-22_09h41.16.748,test8,2022.2.4,59.986563008828796,
,,,,,,27,I pictured places,,,,,,,,,,,,,,,,,0,25,25,26,,,,,,,,,,,,,,,,,,,,,,,,,,,,,,,,,,,,,,,,,,,None,None,None,,,,,,,001,2022-09-22_09h41.16.748,test8,2022.2.4,59.986563008828796,
,,,,,,1,I had busy thoughts,,,,,,,,,,,,,,,,,0,26,26,0,,,,,,,,,,,,,,,,,,,,,,,,,,,,,,,,,,,,,,,,,,,None,None,None,,,,,,,001,2022-09-22_09h41.16.748,test8,2022.2.4,59.986563008828796,
,,,,,,12,I thought about the future,,,,,,,,,,,,,,,,,0,27,27,11,,,,,,,,,,,,,,,,,,,,,,,,,,,,,,,,,,,,,,,,,,,None,None,None,,,,,,,001,2022-09-22_09h41.16.748,test8,2022.2.4,59.986563008828796,
,,,,,,33,I felt motivated to participate,,,,,,,,,,,,,,,,,0,28,28,32,,,,,,,,,,,,,,,,,,,,,,,,,,,,,,,,,,,,,,,,,,,None,None,None,,,,,,,001,2022-09-22_09h41.16.748,test8,2022.2.4,59.986563008828796,
,,,,,,28,I had silent conversations,,,,,,,,,,,,,,,,,0,29,29,27,,,,,,,,,,,,,,,,,,,,,,,,,,,,,,,,,,,,,,,,,,,None,None,None,,,,,,,001,2022-09-22_09h41.16.748,test8,2022.2.4,59.986563008828796,
,,,,,,13,I felt tired,,,,,,,,,,,,,,,,,0,30,30,12,,,,,,,,,,,,,,,,,,,,,,,,,,,,,,,,,,,,,,,,,,,None,None,None,,,,,,,001,2022-09-22_09h41.16.748,test8,2022.2.4,59.986563008828796,
,,,,,,16,I felt comfortable,,,,,,,,,,,,,,,,,0,31,31,15,,,,,,,,,,,,,,,,,,,,,,,,,,,,,,,,,,,,,,,,,,,None,None,None,,,,,,,001,2022-09-22_09h41.16.748,test8,2022.2.4,59.986563008828796,
,,,,,,15,I had difficulty staying awake,,,,,,,,,,,,,,,,,0,32,32,14,,,,,,,,,,,,,,,,,,,,,,,,,,,,,,,,,,,,,,,,,,,None,None,None,,,,,,,001,2022-09-22_09h41.16.748,test8,2022.2.4,59.986563008828796,
,,,,,,19,I was conscious of my body,,,,,,,,,,,,,,,,,0,33,33,18,,,,,,,,,,,,,,,,,,,,,,,,,,,,,,,,,,,,,,,,,,,None,None,None,,,,,,,001,2022-09-22_09h41.16.748,test8,2022.2.4,59.986563008828796,
,,,,,,11,I thought about solving problems,,,,,,,,,,,,,,,,,0,34,34,10,,,,,,,,,,,,,,,,,,,,,,,,,,,,,,,,,,,,,,,,,,,None,None,None,,,,,,,001,2022-09-22_09h41.16.748,test8,2022.2.4,59.986563008828796,
,,,,,,,,1,nBack1Cond.xlsx,6,0.2,0,None,1,1,,,,,,,,,,,,,0,0,0,0,0,0,0,0,,,,,,,,,,,,,,,,,,,,,,,,,,,,,,,,,,,,,,15.987413800001377,15.987413800001377,15.987413800001377,15.987413800001377,None,,001,2022-09-22_09h41.16.748,test8,2022.2.4,59.986563008828796,
,,,,,,,,1,nBack1Cond.xlsx,6,0.2,0,space,1,2,,,,,,,,,,,,,0,0,0,0,0,1,1,1,,,,,,,,,,,,,,,,,,,,,,,,,,,,,,,,,,,,,,,,,,None,,001,2022-09-22_09h41.16.748,test8,2022.2.4,59.986563008828796,
,,,,,,,,1,nBack1Cond.xlsx,2,0,0.2,None,1,3,,,,,,,,,,,,,0,0,0,0,0,2,2,2,,,,,,,,,,,,,,,,,,,,,,,,,,,,,,,,,,,,,,,,,,None,,001,2022-09-22_09h41.16.748,test8,2022.2.4,59.986563008828796,
,,,,,,,,1,nBack1Cond.xlsx,9,0.2,-0.2,None,1,4,,,,,,,,,,,,,0,0,0,0,0,3,3,3,,,,,,,,,,,,,,,,,,,,,,,,,,,,,,,,,,,,,,,,,,None,,001,2022-09-22_09h41.16.748,test8,2022.2.4,59.986563008828796,
,,,,,,,,1,nBack1Cond.xlsx,9,0.2,-0.2,space,1,5,,,,,,,,,,,,,0,0,0,0,0,4,4,4,,,,,,,,,,,,,,,,,,,,,,,,,,,,,,,,,,,,,,,,,,None,,001,2022-09-22_09h41.16.748,test8,2022.2.4,59.986563008828796,
,,,,,,,,1,nBack1Cond.xlsx,6,0.2,0,None,1,6,,,,,,,,,,,,,0,0,0,0,0,5,5,5,,,,,,,,,,,,,,,,,,,,,,,,,,,,,,,,,,,,,,,,,,None,,001,2022-09-22_09h41.16.748,test8,2022.2.4,59.986563008828796,
,,,,,,,,1,nBack1Cond.xlsx,4,-0.2,0,None,1,7,,,,,,,,,,,,,0,0,0,0,0,6,6,6,,,,,,,,,,,,,,,,,,,,,,,,,,,,,,,,,,,,,,,,,,None,,001,2022-09-22_09h41.16.748,test8,2022.2.4,59.986563008828796,
,,,,,,,,1,nBack1Cond.xlsx,3,0.2,0.2,None,1,8,,,,,,,,,,,,,0,0,0,0,0,7,7,7,,,,,,,,,,,,,,,,,,,,,,,,,,,,,,,,,,,,,,,,,,None,,001,2022-09-22_09h41.16.748,test8,2022.2.4,59.986563008828796,
,,,,,,,,1,nBack1Cond.xlsx,3,0.2,0.2,space,1,9,,,,,,,,,,,,,0,0,0,0,0,8,8,8,,,,,,,,,,,,,,,,,,,,,,,,,,,,,,,,,,,,,,,,,,None,,001,2022-09-22_09h41.16.748,test8,2022.2.4,59.986563008828796,
,,,,,,,,1,nBack1Cond.xlsx,8,0,-0.2,None,1,10,,,,,,,,,,,,,0,0,0,0,0,9,9,9,,,,,,,,,,,,,,,,,,,,,,,,,,,,,,,,,,,,,,,,,,None,,001,2022-09-22_09h41.16.748,test8,2022.2.4,59.986563008828796,
,,,,,,,,1,nBack1Cond.xlsx,1,-0.2,0.2,None,1,11,,,,,,,,,,,,,0,0,0,0,0,10,10,10,,,,,,,,,,,,,,,,,,,,,,,,,,,,,,,,,,,,,,,,,,None,,001,2022-09-22_09h41.16.748,test8,2022.2.4,59.986563008828796,
,,,,,,,,1,nBack1Cond.xlsx,2,0,0.2,None,1,12,,,,,,,,,,,,,0,0,0,0,0,11,11,11,,,,,,,,,,,,,,,,,,,,,,,,,,,,,,,,,,,,,,,,,,None,,001,2022-09-22_09h41.16.748,test8,2022.2.4,59.986563008828796,
,,,,,,,,1,nBack1Cond.xlsx,4,-0.2,0,None,1,13,,,,,,,,,,,,,0,0,0,0,0,12,12,12,,,,,,,,,,,,,,,,,,,,,,,,,,,,,,,,,,,,,,,,,,None,,001,2022-09-22_09h41.16.748,test8,2022.2.4,59.986563008828796,
,,,,,,,,1,nBack1Cond.xlsx,4,-0.2,0,space,1,14,,,,,,,,,,,,,0,0,0,0,0,13,13,13,,,,,,,,,,,,,,,,,,,,,,,,,,,,,,,,,,,,,,,,,,None,,001,2022-09-22_09h41.16.748,test8,2022.2.4,59.986563008828796,
,,,,,,,,1,nBack1Cond.xlsx,8,0,-0.2,None,1,15,,,,,,,,,,,,,0,0,0,0,0,14,14,14,,,,,,,,,,,,,,,,,,,,,,,,,,,,,,,,,,,,,,,,,,None,,001,2022-09-22_09h41.16.748,test8,2022.2.4,59.986563008828796,
,,,,,,,,1,nBack1Cond.xlsx,5,0,0,None,1,16,,,,,,,,,,,,,0,0,0,0,0,15,15,15,,,,,,,,,,,,,,,,,,,,,,,,,,,,,,,,,,,,,,,,,,None,,001,2022-09-22_09h41.16.748,test8,2022.2.4,59.986563008828796,
,,,,,,,,1,nBack1Cond.xlsx,5,0,0,space,1,17,,,,,,,,,,,,,0,0,0,0,0,16,16,16,,,,,,,,,,,,,,,,,,,,,,,,,,,,,,,,,,,,,,,,,,None,,001,2022-09-22_09h41.16.748,test8,2022.2.4,59.986563008828796,
,,,,,,,,1,nBack1Cond.xlsx,1,-0.2,0.2,None,1,18,,,,,,,,,,,,,0,0,0,0,0,17,17,17,,,,,,,,,,,,,,,,,,,,,,,,,,,,,,,,,,,,,,,,,,None,,001,2022-09-22_09h41.16.748,test8,2022.2.4,59.986563008828796,
,,,,,,,,1,nBack1Cond.xlsx,3,0.2,0.2,None,1,19,,,,,,,,,,,,,0,0,0,0,0,18,18,18,,,,,,,,,,,,,,,,,,,,,,,,,,,,,,,,,,,,,,,,,,None,,001,2022-09-22_09h41.16.748,test8,2022.2.4,59.986563008828796,
,,,,,,,,1,nBack1Cond.xlsx,6,0.2,0,None,1,20,,,,,,,,,,,,,0,0,0,0,0,19,19,19,,,,,,,,,,,,,,,,,,,,,,,,,,,,,,,,,,,,,,,,,,None,,001,2022-09-22_09h41.16.748,test8,2022.2.4,59.986563008828796,
,,,,,,,,1,nBack1Cond.xlsx,1,-0.2,0.2,None,1,21,,,,,,,,,,,,,0,0,0,0,0,20,20,20,,,,,,,,,,,,,,,,,,,,,,,,,,,,,,,,,,,,,,,,,,None,,001,2022-09-22_09h41.16.748,test8,2022.2.4,59.986563008828796,
,,,,,,,,1,nBack1Cond.xlsx,1,-0.2,0.2,space,1,22,,,,,,,,,,,,,0,0,0,0,0,21,21,21,,,,,,,,,,,,,,,,,,,,,,,,,,,,,,,,,,,,,,,,,,None,,001,2022-09-22_09h41.16.748,test8,2022.2.4,59.986563008828796,
,,,,,,,,1,nBack1Cond.xlsx,1,-0.2,0.2,space,1,23,,,,,,,,,,,,,0,0,0,0,0,22,22,22,,,,,,,,,,,,,,,,,,,,,,,,,,,,,,,,,,,,,,,,,,None,,001,2022-09-22_09h41.16.748,test8,2022.2.4,59.986563008828796,
,,,,,,,,1,nBack1Cond.xlsx,3,0.2,0.2,None,1,24,,,,,,,,,,,,,0,0,0,0,0,23,23,23,,,,,,,,,,,,,,,,,,,,,,,,,,,,,,,,,,,,,,,,,,None,,001,2022-09-22_09h41.16.748,test8,2022.2.4,59.986563008828796,
,,,,,,,,1,nBack1Cond.xlsx,2,0,0.2,None,1,25,,,,,,,,,,,,,0,0,0,0,0,24,24,24,,,,,,,,,,,,,,,,,,,,,,,,,,,,,,,,,,,,,,,,,,None,,001,2022-09-22_09h41.16.748,test8,2022.2.4,59.986563008828796,
,,,,,,,,1,nBack1Cond.xlsx,1,-0.2,0.2,None,1,26,,,,,,,,,,,,,0,0,0,0,0,25,25,25,,,,,,,,,,,,,,,,,,,,,,,,,,,,,,,,,,,,,,,,,,None,,001,2022-09-22_09h41.16.748,test8,2022.2.4,59.986563008828796,
,,,,,,,,1,nBack1Cond.xlsx,7,-0.2,-0.2,None,1,27,,,,,,,,,,,,,0,0,0,0,0,26,26,26,,,,,,,,,,,,,,,,,,,,,,,,,,,,,,,,,,,,,,,,,,None,,001,2022-09-22_09h41.16.748,test8,2022.2.4,59.986563008828796,
,,,,,,,,1,nBack1Cond.xlsx,7,-0.2,-0.2,space,1,28,,,,,,,,,,,,,0,0,0,0,0,27,27,27,,,,,,,,,,,,,,,,,,,,,,,,,,,,,,,,,,,,,,,,,,None,,001,2022-09-22_09h41.16.748,test8,2022.2.4,59.986563008828796,
,,,,,,,,1,nBack1Cond.xlsx,2,0,0.2,None,1,29,,,,,,,,,,,,,0,0,0,0,0,28,28,28,,,,,,,,,,,,,,,,,,,,,,,,,,,,,,,,,,,,,,,,,,None,,001,2022-09-22_09h41.16.748,test8,2022.2.4,59.986563008828796,
,,,,,,,,1,nBack1Cond.xlsx,6,0.2,0,None,1,30,,,,,,,,,,,,,0,0,0,0,0,29,29,29,,,,,,,,,,,,,,,,,,,,,,,,,,,,,,,,,,,,,,,,,,None,,001,2022-09-22_09h41.16.748,test8,2022.2.4,59.986563008828796,
,,,,,,,,1,nBack1Cond.xlsx,4,-0.2,0,None,1,31,,,,,,,,,,,,,0,0,0,0,0,30,30,30,,,,,,,,,,,,,,,,,,,,,,,,,,,,,,,,,,,,,,,,,,None,,001,2022-09-22_09h41.16.748,test8,2022.2.4,59.986563008828796,
,,,,,,,,1,nBack1Cond.xlsx,4,-0.2,0,space,1,32,,,,,,,,,,,,,0,0,0,0,0,31,31,31,,,,,,,,,,,,,,,,,,,,,,,,,,,,,,,,,,,,,,,,,,None,,001,2022-09-22_09h41.16.748,test8,2022.2.4,59.986563008828796,
,,,,,,,,1,nBack1Cond.xlsx,2,0,0.2,None,1,33,,,,,,,,,,,,,0,0,0,0,0,32,32,32,,,,,,,,,,,,,,,,,,,,,,,,,,,,,,,,,,,,,,,,,,None,,001,2022-09-22_09h41.16.748,test8,2022.2.4,59.986563008828796,
,,,,,,,,1,nBack1Cond.xlsx,9,0.2,-0.2,None,1,34,,,,,,,,,,,,,0,0,0,0,0,33,33,33,,,,,,,,,,,,,,,,,,,,,,,,,,,,,,,,,,,,,,,,,,None,,001,2022-09-22_09h41.16.748,test8,2022.2.4,59.986563008828796,
,,,,,,,,1,nBack1Cond.xlsx,9,0.2,-0.2,space,1,35,,,,,,,,,,,,,0,0,0,0,0,34,34,34,,,,,,,,,,,,,,,,,,,,,,,,,,,,,,,,,,,,,,,,,,None,,001,2022-09-22_09h41.16.748,test8,2022.2.4,59.986563008828796,
,,,,,,,,1,nBack1Cond.xlsx,3,0.2,0.2,None,1,36,,,,,,,,,,,,,0,0,0,0,0,35,35,35,,,,,,,,,,,,,,,,,,,,,,,,,,,,,,,,,,,,,,,,,,None,,001,2022-09-22_09h41.16.748,test8,2022.2.4,59.986563008828796,
,,,,,,,,1,nBack1Cond.xlsx,7,-0.2,-0.2,None,1,37,,,,,,,,,,,,,0,0,0,0,0,36,36,36,,,,,,,,,,,,,,,,,,,,,,,,,,,,,,,,,,,,,,,,,,None,,001,2022-09-22_09h41.16.748,test8,2022.2.4,59.986563008828796,
,,,,,,,,1,nBack1Cond.xlsx,7,-0.2,-0.2,space,1,38,,,,,,,,,,,,,0,0,0,0,0,37,37,37,,,,,,,,,,,,,,,,,,,,,,,,,,,,,,,,,,,,,,,,,,None,,001,2022-09-22_09h41.16.748,test8,2022.2.4,59.986563008828796,
,,,,,,,,1,nBack1Cond.xlsx,7,-0.2,-0.2,space,1,39,,,,,,,,,,,,,0,0,0,0,0,38,38,38,,,,,,,,,,,,,,,,,,,,,,,,,,,,,,,,,,,,,,,,,,None,,001,2022-09-22_09h41.16.748,test8,2022.2.4,59.986563008828796,
,,,,,,,,1,nBack1Cond.xlsx,6,0.2,0,None,1,40,,,,,,,,,,,,,0,0,0,0,0,39,39,39,,,,,,,,,,,,,,,,,,,,,,,,,,,,,,,,,,,,,,,,,,None,,001,2022-09-22_09h41.16.748,test8,2022.2.4,59.986563008828796,
,,,,,,,,1,nBack1Cond.xlsx,6,0.2,0,space,1,41,,,,,,,,,,,,,0,0,0,0,0,40,40,40,,,,,,,,,,,,,,,,,,,,,,,,,,,,,,,,,,,,,,,,,,None,,001,2022-09-22_09h41.16.748,test8,2022.2.4,59.986563008828796,
,,,,,,,,1,nBack1Cond.xlsx,1,-0.2,0.2,None,1,42,,,,,,,,,,,,,0,0,0,0,0,41,41,41,,,,,,,,,,,,,,,,,,,,,,,,,,,,,,,,,,,,,,,,,,None,,001,2022-09-22_09h41.16.748,test8,2022.2.4,59.986563008828796,
,,,,,,,,1,nBack1Cond.xlsx,5,0,0,None,1,43,,,,,,,,,,,,,0,0,0,0,0,42,42,42,,,,,,,,,,,,,,,,,,,,,,,,,,,,,,,,,,,,,,,,,,None,,001,2022-09-22_09h41.16.748,test8,2022.2.4,59.986563008828796,
,,,,,,,,1,nBack1Cond.xlsx,3,0.2,0.2,None,1,44,,,,,,,,,,,,,0,0,0,0,0,43,43,43,,,,,,,,,,,,,,,,,,,,,,,,,,,,,,,,,,,,,,,,,,None,,001,2022-09-22_09h41.16.748,test8,2022.2.4,59.986563008828796,
,,,,,,,,1,nBack1Cond.xlsx,1,-0.2,0.2,None,1,45,,,,,,,,,,,,,0,0,0,0,0,44,44,44,,,,,,,,,,,,,,,,,,,,,,,,,,,,,,,,,,,,,,,,,,None,,001,2022-09-22_09h41.16.748,test8,2022.2.4,59.986563008828796,
,,,,,,,,1,nBack1Cond.xlsx,7,-0.2,-0.2,None,1,46,,,,,,,,,,,,,0,0,0,0,0,45,45,45,,,,,,,,,,,,,,,,,,,,,,,,,,,,,,,,,,,,,,,,,,None,,001,2022-09-22_09h41.16.748,test8,2022.2.4,59.986563008828796,
,,,,,,,,1,nBack1Cond.xlsx,3,0.2,0.2,None,1,47,,,,,,,,,,,,,0,0,0,0,0,46,46,46,,,,,,,,,,,,,,,,,,,,,,,,,,,,,,,,,,,,,,,,,,None,,001,2022-09-22_09h41.16.748,test8,2022.2.4,59.986563008828796,
,,,,,,,,1,nBack1Cond.xlsx,3,0.2,0.2,space,1,48,,,,,,,,,,,,,0,0,0,0,0,47,47,47,,,,,,,,,,,,,,,,,,,,,,,,,,,,,,,,,,,,,,,,,,None,,001,2022-09-22_09h41.16.748,test8,2022.2.4,59.986563008828796,
,,,,,,,,1,nBack1Cond.xlsx,9,0.2,-0.2,None,1,49,,,,,,,,,,,,,0,0,0,0,0,48,48,48,,,,,,,,,,,,,,,,,,,,,,,,,,,,,,,,,,,,,,,,,,None,,001,2022-09-22_09h41.16.748,test8,2022.2.4,59.986563008828796,
,,,,,,,,1,nBack1Cond.xlsx,7,-0.2,-0.2,None,1,50,,,,,,,,,,,,,0,0,0,0,0,49,49,49,,,,,,,,,,,,,,,,,,,,,,,,,,,,,,,,,,,,,,,,,,None,,001,2022-09-22_09h41.16.748,test8,2022.2.4,59.986563008828796,
,,,,,,,,1,nBack1Cond.xlsx,5,0,0,None,1,51,,,,,,,,,,,,,0,0,0,0,0,50,50,50,,,,,,,,,,,,,,,,,,,,,,,,,,,,,,,,,,,,,,,,,,None,,001,2022-09-22_09h41.16.748,test8,2022.2.4,59.986563008828796,
,,,,,,,,1,nBack1Cond.xlsx,8,0,-0.2,None,1,52,,,,,,,,,,,,,0,0,0,0,0,51,51,51,,,,,,,,,,,,,,,,,,,,,,,,,,,,,,,,,,,,,,,,,,None,,001,2022-09-22_09h41.16.748,test8,2022.2.4,59.986563008828796,
,,,,,,,,1,nBack1Cond.xlsx,8,0,-0.2,space,1,53,,,,,,,,,,,,,0,0,0,0,0,52,52,52,,,,,,,,,,,,,,,,,,,,,,,,,,,,,,,,,,,,,,,,,,None,,001,2022-09-22_09h41.16.748,test8,2022.2.4,59.986563008828796,
,,,,,,,,1,nBack1Cond.xlsx,7,-0.2,-0.2,None,1,54,,,,,,,,,,,,,0,0,0,0,0,53,53,53,,,,,,,,,,,,,,,,,,,,,,,,,,,,,,,,,,,,,,,,,,None,,001,2022-09-22_09h41.16.748,test8,2022.2.4,59.986563008828796,
,,,,,,,,1,nBack1Cond.xlsx,4,-0.2,0,None,1,55,,,,,,,,,,,,,0,0,0,0,0,54,54,54,,,,,,,,,,,,,,,,,,,,,,,,,,,,,,,,,,,,,,,,,,None,,001,2022-09-22_09h41.16.748,test8,2022.2.4,59.986563008828796,
,,,,,,,,1,nBack1Cond.xlsx,5,0,0,None,1,56,,,,,,,,,,,,,0,0,0,0,0,55,55,55,,,,,,,,,,,,,,,,,,,,,,,,,,,,,,,,,,,,,,,,,,None,,001,2022-09-22_09h41.16.748,test8,2022.2.4,59.986563008828796,
,,,,,,,,1,nBack1Cond.xlsx,5,0,0,space,1,57,,,,,,,,,,,,,0,0,0,0,0,56,56,56,,,,,,,,,,,,,,,,,,,,,,,,,,,,,,,,,,,,,,,,,,None,,001,2022-09-22_09h41.16.748,test8,2022.2.4,59.986563008828796,
,,,,,,,,1,nBack1Cond.xlsx,2,0,0.2,None,1,58,,,,,,,,,,,,,0,0,0,0,0,57,57,57,,,,,,,,,,,,,,,,,,,,,,,,,,,,,,,,,,,,,,,,,,None,,001,2022-09-22_09h41.16.748,test8,2022.2.4,59.986563008828796,
,,,,,,,,1,nBack1Cond.xlsx,2,0,0.2,space,1,59,,,,,,,,,,,,,0,0,0,0,0,58,58,58,,,,,,,,,,,,,,,,,,,,,,,,,,,,,,,,,,,,,,,,,,None,,001,2022-09-22_09h41.16.748,test8,2022.2.4,59.986563008828796,
,,,,,,,,1,nBack1Cond.xlsx,6,0.2,0,None,1,60,,,,,,,,,,,,,0,0,0,0,0,59,59,59,,,,,,,,,,,,,,,,,,,,,,,,,,,,,,,,,,,,,,,,,,None,,001,2022-09-22_09h41.16.748,test8,2022.2.4,59.986563008828796,
,,,,,,,,1,nBack1Cond.xlsx,None,None,None,None,None,None,,,,,,,,,,,,,0,0,0,0,0,60,60,60,,,,,,,,,,,,,,,,,,,,,,,,,,,,,,,,,,,,,,,,,,None,,001,2022-09-22_09h41.16.748,test8,2022.2.4,59.986563008828796,
,,,,,,,,1,nBack1Cond.xlsx,None,None,None,None,None,None,,,,,,,,,,,,,0,0,0,0,0,61,61,61,,,,,,,,,,,,,,,,,,,,,,,,,,,,,,,,,,,,,,,,,,None,,001,2022-09-22_09h41.16.748,test8,2022.2.4,59.986563008828796,
,,,,,,,,1,nBack1Cond.xlsx,None,None,None,None,None,None,,,,,,,,,,,,,0,0,0,0,0,62,62,62,,,,,,,,,,,,,,,,,,,,,,,,,,,,,,,,,,,,,,,,,,None,,001,2022-09-22_09h41.16.748,test8,2022.2.4,59.986563008828796,
,,,,,,,,1,nBack1Cond.xlsx,None,None,None,None,None,None,,,,,,,,,,,,,0,0,0,0,0,63,63,63,,,,,,,,,,,,,,,,,,,,,,,,,,,,,,,,,,,,,,,,,,None,,001,2022-09-22_09h41.16.748,test8,2022.2.4,59.986563008828796,
,,,,,,,,1,nBack1Cond.xlsx,None,None,None,None,None,None,,,,,,,,,,,,,0,0,0,0,0,64,64,64,,,,,,,,,,,,,,,,,,,,,,,,,,,,,,,,,,,,,,,,,,None,,001,2022-09-22_09h41.16.748,test8,2022.2.4,59.986563008828796,
,,,,,,,,1,nBack1Cond.xlsx,None,None,None,None,None,None,,,,,,,,,,,,,0,0,0,0,0,65,65,65,,,,,,,,,,,,,,,,,,,,,,,,,,,,,,,,,,,,,,,,,,None,,001,2022-09-22_09h41.16.748,test8,2022.2.4,59.986563008828796,
,,,,,,,,1,nBack1Cond.xlsx,None,None,None,None,None,None,,,,,,,,,,,,,0,0,0,0,0,66,66,66,,,,,,,,,,,,,,,,,,,,,,,,,,,,,,,,,,,,,,,,,,None,,001,2022-09-22_09h41.16.748,test8,2022.2.4,59.986563008828796,
,,,,,,,,1,nBack1Cond.xlsx,None,None,None,None,None,None,,,,,,,,,,,,,0,0,0,0,0,67,67,67,,,,,,,,,,,,,,,,,,,,,,,,,,,,,,,,,,,,,,,,,,None,,001,2022-09-22_09h41.16.748,test8,2022.2.4,59.986563008828796,
,,,,,,,,1,nBack1Cond.xlsx,None,None,None,None,None,None,,,,,,,,,,,,,0,0,0,0,0,68,68,68,,,,,,,,,,,,,,,,,,,,,,,,,,,,,,,,,,,,,,,,,,None,,001,2022-09-22_09h41.16.748,test8,2022.2.4,59.986563008828796,
,,,,,,,,1,nBack1Cond.xlsx,None,None,None,None,None,None,,,,,,,,,,,,,0,0,0,0,0,69,69,69,,,,,,,,,,,,,,,,,,,,,,,,,,,,,,,,,,,,,,,,,,None,,001,2022-09-22_09h41.16.748,test8,2022.2.4,59.986563008828796,
,,,,,,,,1,nBack1Cond.xlsx,None,None,None,None,None,None,,,,,,,,,,,,,0,0,0,0,0,70,70,70,,,,,,,,,,,,,,,,,,,,,,,,,,,,,,,,,,,,,,,,,,None,,001,2022-09-22_09h41.16.748,test8,2022.2.4,59.986563008828796,
,,,,,,,,1,nBack1Cond.xlsx,None,None,None,None,None,None,,,,,,,,,,,,,0,0,0,0,0,71,71,71,,,,,,,,,,,,,,,,,,,,,,,,,,,,,,,,,,,,,,,,,,None,,001,2022-09-22_09h41.16.748,test8,2022.2.4,59.986563008828796,
,,,,,,,,1,nBack1Cond.xlsx,None,None,None,None,None,None,,,,,,,,,,,,,0,0,0,0,0,72,72,72,,,,,,,,,,,,,,,,,,,,,,,,,,,,,,,,,,,,,,,,,,None,,001,2022-09-22_09h41.16.748,test8,2022.2.4,59.986563008828796,
,,,,,,,,1,nBack1Cond.xlsx,None,None,None,None,None,None,,,,,,,,,,,,,0,0,0,0,0,73,73,73,,,,,,,,,,,,,,,,,,,,,,,,,,,,,,,,,,,,,,,,,,None,,001,2022-09-22_09h41.16.748,test8,2022.2.4,59.986563008828796,
,,,,,,,,1,nBack1Cond.xlsx,None,None,None,None,None,None,,,,,,,,,,,,,0,0,0,0,0,74,74,74,,,,,,,,,,,,,,,,,,,,,,,,,,,,,,,,,,,,,,,,,,None,,001,2022-09-22_09h41.16.748,test8,2022.2.4,59.986563008828796,
,,,,,,,,1,nBack1Cond.xlsx,None,None,None,None,None,None,,,,,,,,,,,,,0,0,0,0,0,75,75,75,,,,,,,,,,,,,,,,,,,,,,,,,,,,,,,,,,,,,,,,,,None,,001,2022-09-22_09h41.16.748,test8,2022.2.4,59.986563008828796,
,,,,,,,,1,nBack1Cond.xlsx,None,None,None,None,None,None,,,,,,,,,,,,,0,0,0,0,0,76,76,76,,,,,,,,,,,,,,,,,,,,,,,,,,,,,,,,,,,,,,,,,,None,,001,2022-09-22_09h41.16.748,test8,2022.2.4,59.986563008828796,
,,,,,,,,1,nBack1Cond.xlsx,None,None,None,None,None,None,,,,,,,,,,,,,0,0,0,0,0,77,77,77,,,,,,,,,,,,,,,,,,,,,,,,,,,,,,,,,,,,,,,,,,None,,001,2022-09-22_09h41.16.748,test8,2022.2.4,59.986563008828796,
,,,,,,,,1,nBack1Cond.xlsx,None,None,None,None,None,None,,,,,,,,,,,,,0,0,0,0,0,78,78,78,,,,,,,,,,,,,,,,,,,,,,,,,,,,,,,,,,,,,,,,,,None,,001,2022-09-22_09h41.16.748,test8,2022.2.4,59.986563008828796,
,,,,,,,,1,nBack1Cond.xlsx,None,None,None,None,None,None,,,,,,,,,,,,,0,0,0,0,0,79,79,79,,,,,,,,,,,,,,,,,,,,,,,,,,,,,,,,,,,,,,,,,,None,,001,2022-09-22_09h41.16.748,test8,2022.2.4,59.986563008828796,
,,,,,,,,1,nBack1Cond.xlsx,None,None,None,None,None,None,,,,,,,,,,,,,0,0,0,0,0,80,80,80,,,,,,,,,,,,,,,,,,,,,,,,,,,,,,,,,,,,,,,,,,None,,001,2022-09-22_09h41.16.748,test8,2022.2.4,59.986563008828796,
,,,,,,,,1,nBack1Cond.xlsx,None,None,None,None,None,None,,,,,,,,,,,,,0,0,0,0,0,81,81,81,,,,,,,,,,,,,,,,,,,,,,,,,,,,,,,,,,,,,,,,,,None,,001,2022-09-22_09h41.16.748,test8,2022.2.4,59.986563008828796,
,,,,,,,,1,nBack1Cond.xlsx,None,None,None,None,None,None,,,,,,,,,,,,,0,0,0,0,0,82,82,82,,,,,,,,,,,,,,,,,,,,,,,,,,,,,,,,,,,,,,,,,,None,,001,2022-09-22_09h41.16.748,test8,2022.2.4,59.986563008828796,
,,,,,,,,1,nBack1Cond.xlsx,None,None,None,None,None,None,,,,,,,,,,,,,0,0,0,0,0,83,83,83,,,,,,,,,,,,,,,,,,,,,,,,,,,,,,,,,,,,,,,,,,None,,001,2022-09-22_09h41.16.748,test8,2022.2.4,59.986563008828796,
,,,,,,,,1,nBack1Cond.xlsx,None,None,None,None,None,None,,,,,,,,,,,,,0,0,0,0,0,84,84,84,,,,,,,,,,,,,,,,,,,,,,,,,,,,,,,,,,,,,,,,,,None,,001,2022-09-22_09h41.16.748,test8,2022.2.4,59.986563008828796,
,,,,,,,,1,nBack1Cond.xlsx,None,None,None,None,None,None,,,,,,,,,,,,,0,0,0,0,0,85,85,85,,,,,,,,,,,,,,,,,,,,,,,,,,,,,,,,,,,,,,,,,,None,,001,2022-09-22_09h41.16.748,test8,2022.2.4,59.986563008828796,
,,,,,,,,1,nBack1Cond.xlsx,None,None,None,None,None,None,,,,,,,,,,,,,0,0,0,0,0,86,86,86,,,,,,,,,,,,,,,,,,,,,,,,,,,,,,,,,,,,,,,,,,None,,001,2022-09-22_09h41.16.748,test8,2022.2.4,59.986563008828796,
,,,,,,,,1,nBack1Cond.xlsx,None,None,None,None,None,None,,,,,,,,,,,,,0,0,0,0,0,87,87,87,,,,,,,,,,,,,,,,,,,,,,,,,,,,,,,,,,,,,,,,,,None,,001,2022-09-22_09h41.16.748,test8,2022.2.4,59.986563008828796,
,,,,,,,,1,nBack1Cond.xlsx,None,None,None,None,None,None,,,,,,,,,,,,,0,0,0,0,0,88,88,88,,,,,,,,,,,,,,,,,,,,,,,,,,,,,,,,,,,,,,,,,,None,,001,2022-09-22_09h41.16.748,test8,2022.2.4,59.986563008828796,
,,,,,,,,1,nBack1Cond.xlsx,None,None,None,None,None,None,,,,,,,,,,,,,0,0,0,0,0,89,89,89,,,,,,,,,,,,,,,,,,,,,,,,,,,,,,,,,,,,,,,,,,None,,001,2022-09-22_09h41.16.748,test8,2022.2.4,59.986563008828796,
,,,,,,,,1,nBack1Cond.xlsx,None,None,None,None,None,None,,,,,,,,,,,,,0,0,0,0,0,90,90,90,,,,,,,,,,,,,,,,,,,,,,,,,,,,,,,,,,,,,,,,,,None,,001,2022-09-22_09h41.16.748,test8,2022.2.4,59.986563008828796,
,,,,,,,,1,nBack1Cond.xlsx,None,None,None,None,None,None,,,,,,,,,,,,,0,0,0,0,0,91,91,91,,,,,,,,,,,,,,,,,,,,,,,,,,,,,,,,,,,,,,,,,,None,,001,2022-09-22_09h41.16.748,test8,2022.2.4,59.986563008828796,
,,,,,,,,1,nBack1Cond.xlsx,None,None,None,None,None,None,,,,,,,,,,,,,0,0,0,0,0,92,92,92,,,,,,,,,,,,,,,,,,,,,,,,,,,,,,,,,,,,,,,,,,None,,001,2022-09-22_09h41.16.748,test8,2022.2.4,59.986563008828796,
,,,,,,,,1,nBack1Cond.xlsx,None,None,None,None,None,None,,,,,,,,,,,,,0,0,0,0,0,93,93,93,,,,,,,,,,,,,,,,,,,,,,,,,,,,,,,,,,,,,,,,,,None,,001,2022-09-22_09h41.16.748,test8,2022.2.4,59.986563008828796,
,,,,,,,,1,nBack1Cond.xlsx,None,None,None,None,None,None,,,,,,,,,,,,,0,0,0,0,0,94,94,94,,,,,,,,,,,,,,,,,,,,,,,,,,,,,,,,,,,,,,,,,,None,,001,2022-09-22_09h41.16.748,test8,2022.2.4,59.986563008828796,
,,,,,,,,1,nBack1Cond.xlsx,None,None,None,None,None,None,,,,,,,,,,,,,0,0,0,0,0,95,95,95,,,,,,,,,,,,,,,,,,,,,,,,,,,,,,,,,,,,,,,,,,None,,001,2022-09-22_09h41.16.748,test8,2022.2.4,59.986563008828796,
,,,,,,,,1,nBack1Cond.xlsx,None,None,None,None,None,None,,,,,,,,,,,,,0,0,0,0,0,96,96,96,,,,,,,,,,,,,,,,,,,,,,,,,,,,,,,,,,,,,,,,,,None,,001,2022-09-22_09h41.16.748,test8,2022.2.4,59.986563008828796,
,,,,,,,,1,nBack1Cond.xlsx,None,None,None,None,None,None,,,,,,,,,,,,,0,0,0,0,0,97,97,97,,,,,,,,,,,,,,,,,,,,,,,,,,,,,,,,,,,,,,,,,,None,,001,2022-09-22_09h41.16.748,test8,2022.2.4,59.986563008828796,
,,,,,,,,1,nBack1Cond.xlsx,None,None,None,None,None,None,,,,,,,,,,,,,0,0,0,0,0,98,98,98,,,,,,,,,,,,,,,,,,,,,,,,,,,,,,,,,,,,,,,,,,None,,001,2022-09-22_09h41.16.748,test8,2022.2.4,59.986563008828796,
,,,,,,,,1,nBack1Cond.xlsx,None,None,None,None,None,None,,,,,,,,,,,,,0,0,0,0,0,99,99,99,,,,,,,,,,,,,,,,,,,,,,,,,,,,,,,,,,,,,,,,,,None,,001,2022-09-22_09h41.16.748,test8,2022.2.4,59.986563008828796,
,,,,,,,,1,nBack1Cond.xlsx,None,None,None,None,None,None,,,,,,,,,,,,,0,0,0,0,0,100,100,100,,,,,,,,,,,,,,,,,,,,,,,,,,,,,,,,,,,,,,,,,,None,,001,2022-09-22_09h41.16.748,test8,2022.2.4,59.986563008828796,
,,,,,,,,1,nBack1Cond.xlsx,None,None,None,None,None,None,,,,,,,,,,,,,0,0,0,0,0,101,101,101,,,,,,,,,,,,,,,,,,,,,,,,,,,,,,,,,,,,,,,,,,None,,001,2022-09-22_09h41.16.748,test8,2022.2.4,59.986563008828796,
,,,,,,,,1,nBack1Cond.xlsx,None,None,None,None,None,None,,,,,,,,,,,,,0,0,0,0,0,102,102,102,,,,,,,,,,,,,,,,,,,,,,,,,,,,,,,,,,,,,,,,,,None,,001,2022-09-22_09h41.16.748,test8,2022.2.4,59.986563008828796,
,,,,,,,,1,nBack1Cond.xlsx,None,None,None,None,None,None,,,,,,,,,,,,,0,0,0,0,0,103,103,103,,,,,,,,,,,,,,,,,,,,,,,,,,,,,,,,,,,,,,,,,,None,,001,2022-09-22_09h41.16.748,test8,2022.2.4,59.986563008828796,
,,,,,,,,1,nBack1Cond.xlsx,None,None,None,None,None,None,,,,,,,,,,,,,0,0,0,0,0,104,104,104,,,,,,,,,,,,,,,,,,,,,,,,,,,,,,,,,,,,,,,,,,None,,001,2022-09-22_09h41.16.748,test8,2022.2.4,59.986563008828796,
,,,,,,,,1,nBack1Cond.xlsx,None,None,None,None,None,None,,,,,,,,,,,,,0,0,0,0,0,105,105,105,,,,,,,,,,,,,,,,,,,,,,,,,,,,,,,,,,,,,,,,,,None,,001,2022-09-22_09h41.16.748,test8,2022.2.4,59.986563008828796,
,,,,,,,,1,nBack1Cond.xlsx,None,None,None,None,None,None,,,,,,,,,,,,,0,0,0,0,0,106,106,106,,,,,,,,,,,,,,,,,,,,,,,,,,,,,,,,,,,,,,,,,,None,,001,2022-09-22_09h41.16.748,test8,2022.2.4,59.986563008828796,
,,,,,,,,1,nBack1Cond.xlsx,None,None,None,None,None,None,,,,,,,,,,,,,0,0,0,0,0,107,107,107,,,,,,,,,,,,,,,,,,,,,,,,,,,,,,,,,,,,,,,,,,None,,001,2022-09-22_09h41.16.748,test8,2022.2.4,59.986563008828796,
,,,,,,,,1,nBack1Cond.xlsx,None,None,None,None,None,None,,,,,,,,,,,,,0,0,0,0,0,108,108,108,,,,,,,,,,,,,,,,,,,,,,,,,,,,,,,,,,,,,,,,,,None,,001,2022-09-22_09h41.16.748,test8,2022.2.4,59.986563008828796,
,,,,,,,,1,nBack1Cond.xlsx,None,None,None,None,None,None,,,,,,,,,,,,,0,0,0,0,0,109,109,109,,,,,,,,,,,,,,,,,,,,,,,,,,,,,,,,,,,,,,,,,,None,,001,2022-09-22_09h41.16.748,test8,2022.2.4,59.986563008828796,
,,,,,,,,1,nBack1Cond.xlsx,None,None,None,None,None,None,,,,,,,,,,,,,0,0,0,0,0,110,110,110,,,,,,,,,,,,,,,,,,,,,,,,,,,,,,,,,,,,,,,,,,None,,001,2022-09-22_09h41.16.748,test8,2022.2.4,59.986563008828796,
,,,,,,,,1,nBack1Cond.xlsx,None,None,None,None,None,None,,,,,,,,,,,,,0,0,0,0,0,111,111,111,,,,,,,,,,,,,,,,,,,,,,,,,,,,,,,,,,,,,,,,,,None,,001,2022-09-22_09h41.16.748,test8,2022.2.4,59.986563008828796,
,,,,,,,,1,nBack1Cond.xlsx,None,None,None,None,None,None,,,,,,,,,,,,,0,0,0,0,0,112,112,112,,,,,,,,,,,,,,,,,,,,,,,,,,,,,,,,,,,,,,,,,,None,,001,2022-09-22_09h41.16.748,test8,2022.2.4,59.986563008828796,
,,,,,,,,1,nBack1Cond.xlsx,None,None,None,None,None,None,,,,,,,,,,,,,0,0,0,0,0,113,113,113,,,,,,,,,,,,,,,,,,,,,,,,,,,,,,,,,,,,,,,,,,None,,001,2022-09-22_09h41.16.748,test8,2022.2.4,59.986563008828796,
,,,,,,,,1,nBack1Cond.xlsx,None,None,None,None,None,None,,,,,,,,,,,,,0,0,0,0,0,114,114,114,,,,,,,,,,,,,,,,,,,,,,,,,,,,,,,,,,,,,,,,,,None,,001,2022-09-22_09h41.16.748,test8,2022.2.4,59.986563008828796,
,,,,,,,,1,nBack1Cond.xlsx,None,None,None,None,None,None,,,,,,,,,,,,,0,0,0,0,0,115,115,115,,,,,,,,,,,,,,,,,,,,,,,,,,,,,,,,,,,,,,,,,,None,,001,2022-09-22_09h41.16.748,test8,2022.2.4,59.986563008828796,
,,,,,,,,1,nBack1Cond.xlsx,None,None,None,None,None,None,,,,,,,,,,,,,0,0,0,0,0,116,116,116,,,,,,,,,,,,,,,,,,,,,,,,,,,,,,,,,,,,,,,,,,None,,001,2022-09-22_09h41.16.748,test8,2022.2.4,59.986563008828796,
,,,,,,,,1,nBack1Cond.xlsx,None,None,None,None,None,None,,,,,,,,,,,,,0,0,0,0,0,117,117,117,,,,,,,,,,,,,,,,,,,,,,,,,,,,,,,,,,,,,,,,,,None,,001,2022-09-22_09h41.16.748,test8,2022.2.4,59.986563008828796,
,,,,,,,,1,nBack1Cond.xlsx,None,None,None,None,None,None,,,,,,,,,,,,,0,0,0,0,0,118,118,118,,,,,,,,,,,,,,,,,,,,,,,,,,,,,,,,,,,,,,,,,,None,,001,2022-09-22_09h41.16.748,test8,2022.2.4,59.986563008828796,
,,,,,,,,1,nBack1Cond.xlsx,None,None,None,None,None,None,,,,,,,,,,,,,0,0,0,0,0,119,119,119,,,,,,,,,,,,,,,,,,,,,,,,,,,,,,,,,,,,,,,,,,None,,001,2022-09-22_09h41.16.748,test8,2022.2.4,59.986563008828796,
,,,,,,,,1,nBack1Cond.xlsx,None,None,None,None,None,None,,,,,,,,,,,,,0,0,0,0,0,120,120,120,,,,,,,,,,,,,,,,,,,,,,,,,,,,,,,,,,,,,,,,,,None,,001,2022-09-22_09h41.16.748,test8,2022.2.4,59.986563008828796,
,,,,,,,,1,nBack1Cond.xlsx,None,None,None,None,None,None,,,,,,,,,,,,,0,0,0,0,0,121,121,121,,,,,,,,,,,,,,,,,,,,,,,,,,,,,,,,,,,,,,,,,,None,,001,2022-09-22_09h41.16.748,test8,2022.2.4,59.986563008828796,
,,,,,,,,1,nBack1Cond.xlsx,None,None,None,None,None,None,,,,,,,,,,,,,0,0,0,0,0,122,122,122,,,,,,,,,,,,,,,,,,,,,,,,,,,,,,,,,,,,,,,,,,None,,001,2022-09-22_09h41.16.748,test8,2022.2.4,59.986563008828796,
,,,,,,,,1,nBack1Cond.xlsx,None,None,None,None,None,None,,,,,,,,,,,,,0,0,0,0,0,123,123,123,,,,,,,,,,,,,,,,,,,,,,,,,,,,,,,,,,,,,,,,,,None,,001,2022-09-22_09h41.16.748,test8,2022.2.4,59.986563008828796,
,,,,,,,,1,nBack1Cond.xlsx,None,None,None,None,None,None,,,,,,,,,,,,,0,0,0,0,0,124,124,124,,,,,,,,,,,,,,,,,,,,,,,,,,,,,,,,,,,,,,,,,,None,,001,2022-09-22_09h41.16.748,test8,2022.2.4,59.986563008828796,
,,,,,,,,1,nBack1Cond.xlsx,None,None,None,None,None,None,,,,,,,,,,,,,0,0,0,0,0,125,125,125,,,,,,,,,,,,,,,,,,,,,,,,,,,,,,,,,,,,,,,,,,None,,001,2022-09-22_09h41.16.748,test8,2022.2.4,59.986563008828796,
,,,,,,,,1,nBack1Cond.xlsx,None,None,None,None,None,None,,,,,,,,,,,,,0,0,0,0,0,126,126,126,,,,,,,,,,,,,,,,,,,,,,,,,,,,,,,,,,,,,,,,,,None,,001,2022-09-22_09h41.16.748,test8,2022.2.4,59.986563008828796,
,,,,,,,,1,nBack1Cond.xlsx,None,None,None,None,None,None,,,,,,,,,,,,,0,0,0,0,0,127,127,127,,,,,,,,,,,,,,,,,,,,,,,,,,,,,,,,,,,,,,,,,,None,,001,2022-09-22_09h41.16.748,test8,2022.2.4,59.986563008828796,
,,,,,,,,1,nBack1Cond.xlsx,None,None,None,None,None,None,,,,,,,,,,,,,0,0,0,0,0,128,128,128,,,,,,,,,,,,,,,,,,,,,,,,,,,,,,,,,,,,,,,,,,None,,001,2022-09-22_09h41.16.748,test8,2022.2.4,59.986563008828796,
,,,,,,,,1,nBack1Cond.xlsx,None,None,None,None,None,None,,,,,,,,,,,,,0,0,0,0,0,129,129,129,,,,,,,,,,,,,,,,,,,,,,,,,,,,,,,,,,,,,,,,,,None,,001,2022-09-22_09h41.16.748,test8,2022.2.4,59.986563008828796,
,,,,,,,,1,nBack1Cond.xlsx,None,None,None,None,None,None,,,,,,,,,,,,,0,0,0,0,0,130,130,130,,,,,,,,,,,,,,,,,,,,,,,,,,,,,,,,,,,,,,,,,,None,,001,2022-09-22_09h41.16.748,test8,2022.2.4,59.986563008828796,
,,,,,,,,1,nBack1Cond.xlsx,None,None,None,None,None,None,,,,,,,,,,,,,0,0,0,0,0,131,131,131,,,,,,,,,,,,,,,,,,,,,,,,,,,,,,,,,,,,,,,,,,None,,001,2022-09-22_09h41.16.748,test8,2022.2.4,59.986563008828796,
,,,,,,,,1,nBack1Cond.xlsx,None,None,None,None,None,None,,,,,,,,,,,,,0,0,0,0,0,132,132,132,,,,,,,,,,,,,,,,,,,,,,,,,,,,,,,,,,,,,,,,,,None,,001,2022-09-22_09h41.16.748,test8,2022.2.4,59.986563008828796,
,,,,,,,,1,nBack1Cond.xlsx,None,None,None,None,None,None,,,,,,,,,,,,,0,0,0,0,0,133,133,133,,,,,,,,,,,,,,,,,,,,,,,,,,,,,,,,,,,,,,,,,,None,,001,2022-09-22_09h41.16.748,test8,2022.2.4,59.986563008828796,
,,,,,,,,1,nBack1Cond.xlsx,None,None,None,None,None,None,,,,,,,,,,,,,0,0,0,0,0,134,134,134,,,,,,,,,,,,,,,,,,,,,,,,,,,,,,,,,,,,,,,,,,None,,001,2022-09-22_09h41.16.748,test8,2022.2.4,59.986563008828796,
,,,,,,,,1,nBack1Cond.xlsx,None,None,None,None,None,None,,,,,,,,,,,,,0,0,0,0,0,135,135,135,,,,,,,,,,,,,,,,,,,,,,,,,,,,,,,,,,,,,,,,,,None,,001,2022-09-22_09h41.16.748,test8,2022.2.4,59.986563008828796,
,,,,,,,,1,nBack1Cond.xlsx,None,None,None,None,None,None,,,,,,,,,,,,,0,0,0,0,0,136,136,136,,,,,,,,,,,,,,,,,,,,,,,,,,,,,,,,,,,,,,,,,,None,,001,2022-09-22_09h41.16.748,test8,2022.2.4,59.986563008828796,
,,,,,,,,1,nBack1Cond.xlsx,None,None,None,None,None,None,,,,,,,,,,,,,0,0,0,0,0,137,137,137,,,,,,,,,,,,,,,,,,,,,,,,,,,,,,,,,,,,,,,,,,None,,001,2022-09-22_09h41.16.748,test8,2022.2.4,59.986563008828796,
,,,,,,,,1,nBack1Cond.xlsx,None,None,None,None,None,None,,,,,,,,,,,,,0,0,0,0,0,138,138,138,,,,,,,,,,,,,,,,,,,,,,,,,,,,,,,,,,,,,,,,,,None,,001,2022-09-22_09h41.16.748,test8,2022.2.4,59.986563008828796,
,,,,,,,,1,nBack1Cond.xlsx,None,None,None,None,None,None,,,,,,,,,,,,,0,0,0,0,0,139,139,139,,,,,,,,,,,,,,,,,,,,,,,,,,,,,,,,,,,,,,,,,,None,,001,2022-09-22_09h41.16.748,test8,2022.2.4,59.986563008828796,
,,,,,,,,1,nBack1Cond.xlsx,None,None,None,None,None,None,,,,,,,,,,,,,0,0,0,0,0,140,140,140,,,,,,,,,,,,,,,,,,,,,,,,,,,,,,,,,,,,,,,,,,None,,001,2022-09-22_09h41.16.748,test8,2022.2.4,59.986563008828796,
,,,,,,,,1,nBack1Cond.xlsx,None,None,None,None,None,None,,,,,,,,,,,,,0,0,0,0,0,141,141,141,,,,,,,,,,,,,,,,,,,,,,,,,,,,,,,,,,,,,,,,,,None,,001,2022-09-22_09h41.16.748,test8,2022.2.4,59.986563008828796,
,,,,,,,,1,nBack1Cond.xlsx,None,None,None,None,None,None,,,,,,,,,,,,,0,0,0,0,0,142,142,142,,,,,,,,,,,,,,,,,,,,,,,,,,,,,,,,,,,,,,,,,,None,,001,2022-09-22_09h41.16.748,test8,2022.2.4,59.986563008828796,
,,,,,,,,1,nBack1Cond.xlsx,None,None,None,None,None,None,,,,,,,,,,,,,0,0,0,0,0,143,143,143,,,,,,,,,,,,,,,,,,,,,,,,,,,,,,,,,,,,,,,,,,None,,001,2022-09-22_09h41.16.748,test8,2022.2.4,59.986563008828796,
,,,,,,,,1,nBack1Cond.xlsx,None,None,None,None,None,None,,,,,,,,,,,,,0,0,0,0,0,144,144,144,,,,,,,,,,,,,,,,,,,,,,,,,,,,,,,,,,,,,,,,,,None,,001,2022-09-22_09h41.16.748,test8,2022.2.4,59.986563008828796,
,,,,,,,,1,nBack1Cond.xlsx,None,None,None,None,None,None,,,,,,,,,,,,,0,0,0,0,0,145,145,145,,,,,,,,,,,,,,,,,,,,,,,,,,,,,,,,,,,,,,,,,,None,,001,2022-09-22_09h41.16.748,test8,2022.2.4,59.986563008828796,
,,,,,,,,1,nBack1Cond.xlsx,None,None,None,None,None,None,,,,,,,,,,,,,0,0,0,0,0,146,146,146,,,,,,,,,,,,,,,,,,,,,,,,,,,,,,,,,,,,,,,,,,None,,001,2022-09-22_09h41.16.748,test8,2022.2.4,59.986563008828796,
,,,,,,,,1,nBack1Cond.xlsx,None,None,None,None,None,None,,,,,,,,,,,,,0,0,0,0,0,147,147,147,,,,,,,,,,,,,,,,,,,,,,,,,,,,,,,,,,,,,,,,,,None,,001,2022-09-22_09h41.16.748,test8,2022.2.4,59.986563008828796,
,,,,,,,,1,nBack1Cond.xlsx,None,None,None,None,None,None,,,,,,,,,,,,,0,0,0,0,0,148,148,148,,,,,,,,,,,,,,,,,,,,,,,,,,,,,,,,,,,,,,,,,,None,,001,2022-09-22_09h41.16.748,test8,2022.2.4,59.986563008828796,
,,,,,,,,1,nBack1Cond.xlsx,None,None,None,None,None,None,,,,,,,,,,,,,0,0,0,0,0,149,149,149,,,,,,,,,,,,,,,,,,,,,,,,,,,,,,,,,,,,,,,,,,None,,001,2022-09-22_09h41.16.748,test8,2022.2.4,59.986563008828796,
,,,,,,,,1,nBack1Cond.xlsx,None,None,None,None,None,None,,,,,,,,,,,,,0,0,0,0,0,150,150,150,,,,,,,,,,,,,,,,,,,,,,,,,,,,,,,,,,,,,,,,,,None,,001,2022-09-22_09h41.16.748,test8,2022.2.4,59.986563008828796,
,,,,,,,,1,nBack1Cond.xlsx,None,None,None,None,None,None,,,,,,,,,,,,,0,0,0,0,0,151,151,151,,,,,,,,,,,,,,,,,,,,,,,,,,,,,,,,,,,,,,,,,,None,,001,2022-09-22_09h41.16.748,test8,2022.2.4,59.986563008828796,
,,,,,,,,1,nBack1Cond.xlsx,None,None,None,None,None,None,,,,,,,,,,,,,0,0,0,0,0,152,152,152,,,,,,,,,,,,,,,,,,,,,,,,,,,,,,,,,,,,,,,,,,None,,001,2022-09-22_09h41.16.748,test8,2022.2.4,59.986563008828796,
,,,,,,,,1,nBack1Cond.xlsx,None,None,None,None,None,None,,,,,,,,,,,,,0,0,0,0,0,153,153,153,,,,,,,,,,,,,,,,,,,,,,,,,,,,,,,,,,,,,,,,,,None,,001,2022-09-22_09h41.16.748,test8,2022.2.4,59.986563008828796,
,,,,,,,,1,nBack1Cond.xlsx,None,None,None,None,None,None,,,,,,,,,,,,,0,0,0,0,0,154,154,154,,,,,,,,,,,,,,,,,,,,,,,,,,,,,,,,,,,,,,,,,,None,,001,2022-09-22_09h41.16.748,test8,2022.2.4,59.986563008828796,
,,,,,,,,1,nBack1Cond.xlsx,None,None,None,None,None,None,,,,,,,,,,,,,0,0,0,0,0,155,155,155,,,,,,,,,,,,,,,,,,,,,,,,,,,,,,,,,,,,,,,,,,None,,001,2022-09-22_09h41.16.748,test8,2022.2.4,59.986563008828796,
,,,,,,,,1,nBack1Cond.xlsx,None,None,None,None,None,None,,,,,,,,,,,,,0,0,0,0,0,156,156,156,,,,,,,,,,,,,,,,,,,,,,,,,,,,,,,,,,,,,,,,,,None,,001,2022-09-22_09h41.16.748,test8,2022.2.4,59.986563008828796,
,,,,,,,,1,nBack1Cond.xlsx,None,None,None,None,None,None,,,,,,,,,,,,,0,0,0,0,0,157,157,157,,,,,,,,,,,,,,,,,,,,,,,,,,,,,,,,,,,,,,,,,,None,,001,2022-09-22_09h41.16.748,test8,2022.2.4,59.986563008828796,
,,,,,,,,1,nBack1Cond.xlsx,None,None,None,None,None,None,,,,,,,,,,,,,0,0,0,0,0,158,158,158,,,,,,,,,,,,,,,,,,,,,,,,,,,,,,,,,,,,,,,,,,None,,001,2022-09-22_09h41.16.748,test8,2022.2.4,59.986563008828796,
,,,,,,,,1,nBack1Cond.xlsx,None,None,None,None,None,None,,,,,,,,,,,,,0,0,0,0,0,159,159,159,,,,,,,,,,,,,,,,,,,,,,,,,,,,,,,,,,,,,,,,,,None,,001,2022-09-22_09h41.16.748,test8,2022.2.4,59.986563008828796,
,,,,,,,,1,nBack1Cond.xlsx,None,None,None,None,None,None,,,,,,,,,,,,,0,0,0,0,0,160,160,160,,,,,,,,,,,,,,,,,,,,,,,,,,,,,,,,,,,,,,,,,,None,,001,2022-09-22_09h41.16.748,test8,2022.2.4,59.986563008828796,
,,,,,,,,1,nBack1Cond.xlsx,None,None,None,None,None,None,,,,,,,,,,,,,0,0,0,0,0,161,161,161,,,,,,,,,,,,,,,,,,,,,,,,,,,,,,,,,,,,,,,,,,None,,001,2022-09-22_09h41.16.748,test8,2022.2.4,59.986563008828796,
,,,,,,,,1,nBack1Cond.xlsx,None,None,None,None,None,None,,,,,,,,,,,,,0,0,0,0,0,162,162,162,,,,,,,,,,,,,,,,,,,,,,,,,,,,,,,,,,,,,,,,,,None,,001,2022-09-22_09h41.16.748,test8,2022.2.4,59.986563008828796,
,,,,,,,,1,nBack1Cond.xlsx,None,None,None,None,None,None,,,,,,,,,,,,,0,0,0,0,0,163,163,163,,,,,,,,,,,,,,,,,,,,,,,,,,,,,,,,,,,,,,,,,,None,,001,2022-09-22_09h41.16.748,test8,2022.2.4,59.986563008828796,
,,,,,,,,1,nBack1Cond.xlsx,None,None,None,None,None,None,,,,,,,,,,,,,0,0,0,0,0,164,164,164,,,,,,,,,,,,,,,,,,,,,,,,,,,,,,,,,,,,,,,,,,None,,001,2022-09-22_09h41.16.748,test8,2022.2.4,59.986563008828796,
,,,,,,,,1,nBack1Cond.xlsx,None,None,None,None,None,None,,,,,,,,,,,,,0,0,0,0,0,165,165,165,,,,,,,,,,,,,,,,,,,,,,,,,,,,,,,,,,,,,,,,,,None,,001,2022-09-22_09h41.16.748,test8,2022.2.4,59.986563008828796,
,,,,,,,,1,nBack1Cond.xlsx,None,None,None,None,None,None,,,,,,,,,,,,,0,0,0,0,0,166,166,166,,,,,,,,,,,,,,,,,,,,,,,,,,,,,,,,,,,,,,,,,,None,,001,2022-09-22_09h41.16.748,test8,2022.2.4,59.986563008828796,
,,,,,,,,1,nBack1Cond.xlsx,None,None,None,None,None,None,,,,,,,,,,,,,0,0,0,0,0,167,167,167,,,,,,,,,,,,,,,,,,,,,,,,,,,,,,,,,,,,,,,,,,None,,001,2022-09-22_09h41.16.748,test8,2022.2.4,59.986563008828796,
,,,,,,,,1,nBack1Cond.xlsx,None,None,None,None,None,None,,,,,,,,,,,,,0,0,0,0,0,168,168,168,,,,,,,,,,,,,,,,,,,,,,,,,,,,,,,,,,,,,,,,,,None,,001,2022-09-22_09h41.16.748,test8,2022.2.4,59.986563008828796,
,,,,,,,,1,nBack1Cond.xlsx,None,None,None,None,None,None,,,,,,,,,,,,,0,0,0,0,0,169,169,169,,,,,,,,,,,,,,,,,,,,,,,,,,,,,,,,,,,,,,,,,,None,,001,2022-09-22_09h41.16.748,test8,2022.2.4,59.986563008828796,
,,,,,,,,1,nBack1Cond.xlsx,None,None,None,None,None,None,,,,,,,,,,,,,0,0,0,0,0,170,170,170,,,,,,,,,,,,,,,,,,,,,,,,,,,,,,,,,,,,,,,,,,None,,001,2022-09-22_09h41.16.748,test8,2022.2.4,59.986563008828796,
,,,,,,,,1,nBack1Cond.xlsx,None,None,None,None,None,None,,,,,,,,,,,,,0,0,0,0,0,171,171,171,,,,,,,,,,,,,,,,,,,,,,,,,,,,,,,,,,,,,,,,,,None,,001,2022-09-22_09h41.16.748,test8,2022.2.4,59.986563008828796,
,,,,,,,,1,nBack1Cond.xlsx,None,None,None,None,None,None,,,,,,,,,,,,,0,0,0,0,0,172,172,172,,,,,,,,,,,,,,,,,,,,,,,,,,,,,,,,,,,,,,,,,,None,,001,2022-09-22_09h41.16.748,test8,2022.2.4,59.986563008828796,
,,,,,,,,1,nBack1Cond.xlsx,None,None,None,None,None,None,,,,,,,,,,,,,0,0,0,0,0,173,173,173,,,,,,,,,,,,,,,,,,,,,,,,,,,,,,,,,,,,,,,,,,None,,001,2022-09-22_09h41.16.748,test8,2022.2.4,59.986563008828796,
,,,,,,,,1,nBack1Cond.xlsx,None,None,None,None,None,None,,,,,,,,,,,,,0,0,0,0,0,174,174,174,,,,,,,,,,,,,,,,,,,,,,,,,,,,,,,,,,,,,,,,,,None,,001,2022-09-22_09h41.16.748,test8,2022.2.4,59.986563008828796,
,,,,,,,,1,nBack1Cond.xlsx,None,None,None,None,None,None,,,,,,,,,,,,,0,0,0,0,0,175,175,175,,,,,,,,,,,,,,,,,,,,,,,,,,,,,,,,,,,,,,,,,,None,,001,2022-09-22_09h41.16.748,test8,2022.2.4,59.986563008828796,
,,,,,,,,1,nBack1Cond.xlsx,None,None,None,None,None,None,,,,,,,,,,,,,0,0,0,0,0,176,176,176,,,,,,,,,,,,,,,,,,,,,,,,,,,,,,,,,,,,,,,,,,None,,001,2022-09-22_09h41.16.748,test8,2022.2.4,59.986563008828796,
,,,,,,,,1,nBack1Cond.xlsx,None,None,None,None,None,None,,,,,,,,,,,,,0,0,0,0,0,177,177,177,,,,,,,,,,,,,,,,,,,,,,,,,,,,,,,,,,,,,,,,,,None,,001,2022-09-22_09h41.16.748,test8,2022.2.4,59.986563008828796,
,,,,,,,,1,nBack1Cond.xlsx,None,None,None,None,None,None,,,,,,,,,,,,,0,0,0,0,0,178,178,178,,,,,,,,,,,,,,,,,,,,,,,,,,,,,,,,,,,,,,,,,,None,,001,2022-09-22_09h41.16.748,test8,2022.2.4,59.986563008828796,
,,,,,,,,1,nBack1Cond.xlsx,None,None,None,None,None,None,,,,,,,,,,,,,0,0,0,0,0,179,179,179,,,,,,,,,,,,,,,,,,,,,,,,,,,,,,,,,,,,,,,,,,None,,001,2022-09-22_09h41.16.748,test8,2022.2.4,59.986563008828796,
,,,,,,,,1,nBack1Cond.xlsx,None,None,None,None,None,None,,,,,,,,,,,,,0,0,0,0,0,180,180,180,,,,,,,,,,,,,,,,,,,,,,,,,,,,,,,,,,,,,,,,,,None,,001,2022-09-22_09h41.16.748,test8,2022.2.4,59.986563008828796,
,,,,,,,,1,nBack1Cond.xlsx,None,None,None,None,None,None,,,,,,,,,,,,,0,0,0,0,0,181,181,181,,,,,,,,,,,,,,,,,,,,,,,,,,,,,,,,,,,,,,,,,,None,,001,2022-09-22_09h41.16.748,test8,2022.2.4,59.986563008828796,
,,,,,,,,1,nBack1Cond.xlsx,None,None,None,None,None,None,,,,,,,,,,,,,0,0,0,0,0,182,182,182,,,,,,,,,,,,,,,,,,,,,,,,,,,,,,,,,,,,,,,,,,None,,001,2022-09-22_09h41.16.748,test8,2022.2.4,59.986563008828796,
,,,,,,,,1,nBack1Cond.xlsx,None,None,None,None,None,None,,,,,,,,,,,,,0,0,0,0,0,183,183,183,,,,,,,,,,,,,,,,,,,,,,,,,,,,,,,,,,,,,,,,,,None,,001,2022-09-22_09h41.16.748,test8,2022.2.4,59.986563008828796,
,,,,,,,,1,nBack1Cond.xlsx,None,None,None,None,None,None,,,,,,,,,,,,,0,0,0,0,0,184,184,184,,,,,,,,,,,,,,,,,,,,,,,,,,,,,,,,,,,,,,,,,,None,,001,2022-09-22_09h41.16.748,test8,2022.2.4,59.986563008828796,
,,,,,,,,1,nBack1Cond.xlsx,None,None,None,None,None,None,,,,,,,,,,,,,0,0,0,0,0,185,185,185,,,,,,,,,,,,,,,,,,,,,,,,,,,,,,,,,,,,,,,,,,None,,001,2022-09-22_09h41.16.748,test8,2022.2.4,59.986563008828796,
,,,,,,,,1,nBack1Cond.xlsx,None,None,None,None,None,None,,,,,,,,,,,,,0,0,0,0,0,186,186,186,,,,,,,,,,,,,,,,,,,,,,,,,,,,,,,,,,,,,,,,,,None,,001,2022-09-22_09h41.16.748,test8,2022.2.4,59.986563008828796,
,,,,,,,,1,nBack1Cond.xlsx,None,None,None,None,None,None,,,,,,,,,,,,,0,0,0,0,0,187,187,187,,,,,,,,,,,,,,,,,,,,,,,,,,,,,,,,,,,,,,,,,,None,,001,2022-09-22_09h41.16.748,test8,2022.2.4,59.986563008828796,
,,,,,,,,1,nBack1Cond.xlsx,None,None,None,None,None,None,,,,,,,,,,,,,0,0,0,0,0,188,188,188,,,,,,,,,,,,,,,,,,,,,,,,,,,,,,,,,,,,,,,,,,None,,001,2022-09-22_09h41.16.748,test8,2022.2.4,59.986563008828796,
,,,,,,,,1,nBack1Cond.xlsx,None,None,None,None,None,None,,,,,,,,,,,,,0,0,0,0,0,189,189,189,,,,,,,,,,,,,,,,,,,,,,,,,,,,,,,,,,,,,,,,,,None,,001,2022-09-22_09h41.16.748,test8,2022.2.4,59.986563008828796,
,,,,,,,,1,nBack1Cond.xlsx,None,None,None,None,None,None,,,,,,,,,,,,,0,0,0,0,0,190,190,190,,,,,,,,,,,,,,,,,,,,,,,,,,,,,,,,,,,,,,,,,,None,,001,2022-09-22_09h41.16.748,test8,2022.2.4,59.986563008828796,
,,,,,,,,1,nBack1Cond.xlsx,None,None,None,None,None,None,,,,,,,,,,,,,0,0,0,0,0,191,191,191,,,,,,,,,,,,,,,,,,,,,,,,,,,,,,,,,,,,,,,,,,None,,001,2022-09-22_09h41.16.748,test8,2022.2.4,59.986563008828796,
,,,,,,,,1,nBack1Cond.xlsx,None,None,None,None,None,None,,,,,,,,,,,,,0,0,0,0,0,192,192,192,,,,,,,,,,,,,,,,,,,,,,,,,,,,,,,,,,,,,,,,,,None,,001,2022-09-22_09h41.16.748,test8,2022.2.4,59.986563008828796,
,,,,,,,,1,nBack1Cond.xlsx,None,None,None,None,None,None,,,,,,,,,,,,,0,0,0,0,0,193,193,193,,,,,,,,,,,,,,,,,,,,,,,,,,,,,,,,,,,,,,,,,,None,,001,2022-09-22_09h41.16.748,test8,2022.2.4,59.986563008828796,
,,,,,,,,1,nBack1Cond.xlsx,None,None,None,None,None,None,,,,,,,,,,,,,0,0,0,0,0,194,194,194,,,,,,,,,,,,,,,,,,,,,,,,,,,,,,,,,,,,,,,,,,None,,001,2022-09-22_09h41.16.748,test8,2022.2.4,59.986563008828796,
,,,,,,,,1,nBack1Cond.xlsx,None,None,None,None,None,None,,,,,,,,,,,,,0,0,0,0,0,195,195,195,,,,,,,,,,,,,,,,,,,,,,,,,,,,,,,,,,,,,,,,,,None,,001,2022-09-22_09h41.16.748,test8,2022.2.4,59.986563008828796,
,,,,,,,,1,nBack1Cond.xlsx,None,None,None,None,None,None,,,,,,,,,,,,,0,0,0,0,0,196,196,196,,,,,,,,,,,,,,,,,,,,,,,,,,,,,,,,,,,,,,,,,,None,,001,2022-09-22_09h41.16.748,test8,2022.2.4,59.986563008828796,
,,,,,,,,1,nBack1Cond.xlsx,None,None,None,None,None,None,,,,,,,,,,,,,0,0,0,0,0,197,197,197,,,,,,,,,,,,,,,,,,,,,,,,,,,,,,,,,,,,,,,,,,None,,001,2022-09-22_09h41.16.748,test8,2022.2.4,59.986563008828796,
,,,,,,,,1,nBack1Cond.xlsx,None,None,None,None,None,None,,,,,,,,,,,,,0,0,0,0,0,198,198,198,,,,,,,,,,,,,,,,,,,,,,,,,,,,,,,,,,,,,,,,,,None,,001,2022-09-22_09h41.16.748,test8,2022.2.4,59.986563008828796,
,,,,,,,,1,nBack1Cond.xlsx,None,None,None,None,None,None,,,,,,,,,,,,,0,0,0,0,0,199,199,199,,,,,,,,,,,,,,,,,,,,,,,,,,,,,,,,,,,,,,,,,,None,,001,2022-09-22_09h41.16.748,test8,2022.2.4,59.986563008828796,
,,,,,,,,1,nBack1Cond.xlsx,None,None,None,None,None,None,,,,,,,,,,,,,0,0,0,0,0,200,200,200,,,,,,,,,,,,,,,,,,,,,,,,,,,,,,,,,,,,,,,,,,None,,001,2022-09-22_09h41.16.748,test8,2022.2.4,59.986563008828796,
,,,,,,,,1,nBack1Cond.xlsx,None,None,None,None,None,None,,,,,,,,,,,,,0,0,0,0,0,201,201,201,,,,,,,,,,,,,,,,,,,,,,,,,,,,,,,,,,,,,,,,,,None,,001,2022-09-22_09h41.16.748,test8,2022.2.4,59.986563008828796,
,,,,,,,,1,nBack1Cond.xlsx,None,None,None,None,None,None,,,,,,,,,,,,,0,0,0,0,0,202,202,202,,,,,,,,,,,,,,,,,,,,,,,,,,,,,,,,,,,,,,,,,,None,,001,2022-09-22_09h41.16.748,test8,2022.2.4,59.986563008828796,
,,,,,,,,1,nBack1Cond.xlsx,None,None,None,None,None,None,,,,,,,,,,,,,0,0,0,0,0,203,203,203,,,,,,,,,,,,,,,,,,,,,,,,,,,,,,,,,,,,,,,,,,None,,001,2022-09-22_09h41.16.748,test8,2022.2.4,59.986563008828796,
,,,,,,,,1,nBack1Cond.xlsx,None,None,None,None,None,None,,,,,,,,,,,,,0,0,0,0,0,204,204,204,,,,,,,,,,,,,,,,,,,,,,,,,,,,,,,,,,,,,,,,,,None,,001,2022-09-22_09h41.16.748,test8,2022.2.4,59.986563008828796,
,,,,,,,,1,nBack1Cond.xlsx,None,None,None,None,None,None,,,,,,,,,,,,,0,0,0,0,0,205,205,205,,,,,,,,,,,,,,,,,,,,,,,,,,,,,,,,,,,,,,,,,,None,,001,2022-09-22_09h41.16.748,test8,2022.2.4,59.986563008828796,
,,,,,,,,1,nBack1Cond.xlsx,None,None,None,None,None,None,,,,,,,,,,,,,0,0,0,0,0,206,206,206,,,,,,,,,,,,,,,,,,,,,,,,,,,,,,,,,,,,,,,,,,None,,001,2022-09-22_09h41.16.748,test8,2022.2.4,59.986563008828796,
,,,,,,,,1,nBack1Cond.xlsx,None,None,None,None,None,None,,,,,,,,,,,,,0,0,0,0,0,207,207,207,,,,,,,,,,,,,,,,,,,,,,,,,,,,,,,,,,,,,,,,,,None,,001,2022-09-22_09h41.16.748,test8,2022.2.4,59.986563008828796,
,,,,,,,,1,nBack1Cond.xlsx,None,None,None,None,None,None,,,,,,,,,,,,,0,0,0,0,0,208,208,208,,,,,,,,,,,,,,,,,,,,,,,,,,,,,,,,,,,,,,,,,,None,,001,2022-09-22_09h41.16.748,test8,2022.2.4,59.986563008828796,
,,,,,,,,1,nBack1Cond.xlsx,None,None,None,None,None,None,,,,,,,,,,,,,0,0,0,0,0,209,209,209,,,,,,,,,,,,,,,,,,,,,,,,,,,,,,,,,,,,,,,,,,None,,001,2022-09-22_09h41.16.748,test8,2022.2.4,59.986563008828796,
,,,,,,,,1,nBack1Cond.xlsx,None,None,None,None,None,None,,,,,,,,,,,,,0,0,0,0,0,210,210,210,,,,,,,,,,,,,,,,,,,,,,,,,,,,,,,,,,,,,,,,,,None,,001,2022-09-22_09h41.16.748,test8,2022.2.4,59.986563008828796,
,,,,,,,,1,nBack1Cond.xlsx,None,None,None,None,None,None,,,,,,,,,,,,,0,0,0,0,0,211,211,211,,,,,,,,,,,,,,,,,,,,,,,,,,,,,,,,,,,,,,,,,,None,,001,2022-09-22_09h41.16.748,test8,2022.2.4,59.986563008828796,
,,,,,,,,1,nBack1Cond.xlsx,None,None,None,None,None,None,,,,,,,,,,,,,0,0,0,0,0,212,212,212,,,,,,,,,,,,,,,,,,,,,,,,,,,,,,,,,,,,,,,,,,None,,001,2022-09-22_09h41.16.748,test8,2022.2.4,59.986563008828796,
,,,,,,,,1,nBack1Cond.xlsx,None,None,None,None,None,None,,,,,,,,,,,,,0,0,0,0,0,213,213,213,,,,,,,,,,,,,,,,,,,,,,,,,,,,,,,,,,,,,,,,,,None,,001,2022-09-22_09h41.16.748,test8,2022.2.4,59.986563008828796,
,,,,,,,,1,nBack1Cond.xlsx,None,None,None,None,None,None,,,,,,,,,,,,,0,0,0,0,0,214,214,214,,,,,,,,,,,,,,,,,,,,,,,,,,,,,,,,,,,,,,,,,,None,,001,2022-09-22_09h41.16.748,test8,2022.2.4,59.986563008828796,
,,,,,,,,1,nBack1Cond.xlsx,None,None,None,None,None,None,,,,,,,,,,,,,0,0,0,0,0,215,215,215,,,,,,,,,,,,,,,,,,,,,,,,,,,,,,,,,,,,,,,,,,None,,001,2022-09-22_09h41.16.748,test8,2022.2.4,59.986563008828796,
,,,,,,,,1,nBack1Cond.xlsx,None,None,None,None,None,None,,,,,,,,,,,,,0,0,0,0,0,216,216,216,,,,,,,,,,,,,,,,,,,,,,,,,,,,,,,,,,,,,,,,,,None,,001,2022-09-22_09h41.16.748,test8,2022.2.4,59.986563008828796,
,,,,,,,,1,nBack1Cond.xlsx,None,None,None,None,None,None,,,,,,,,,,,,,0,0,0,0,0,217,217,217,,,,,,,,,,,,,,,,,,,,,,,,,,,,,,,,,,,,,,,,,,None,,001,2022-09-22_09h41.16.748,test8,2022.2.4,59.986563008828796,
,,,,,,,,1,nBack1Cond.xlsx,None,None,None,None,None,None,,,,,,,,,,,,,0,0,0,0,0,218,218,218,,,,,,,,,,,,,,,,,,,,,,,,,,,,,,,,,,,,,,,,,,None,,001,2022-09-22_09h41.16.748,test8,2022.2.4,59.986563008828796,
,,,,,,,,1,nBack1Cond.xlsx,None,None,None,None,None,None,,,,,,,,,,,,,0,0,0,0,0,219,219,219,,,,,,,,,,,,,,,,,,,,,,,,,,,,,,,,,,,,,,,,,,None,,001,2022-09-22_09h41.16.748,test8,2022.2.4,59.986563008828796,
,,,,,,,,1,nBack1Cond.xlsx,None,None,None,None,None,None,,,,,,,,,,,,,0,0,0,0,0,220,220,220,,,,,,,,,,,,,,,,,,,,,,,,,,,,,,,,,,,,,,,,,,None,,001,2022-09-22_09h41.16.748,test8,2022.2.4,59.986563008828796,
,,,,,,,,1,nBack1Cond.xlsx,None,None,None,None,None,None,,,,,,,,,,,,,0,0,0,0,0,221,221,221,,,,,,,,,,,,,,,,,,,,,,,,,,,,,,,,,,,,,,,,,,None,,001,2022-09-22_09h41.16.748,test8,2022.2.4,59.986563008828796,
,,,,,,,,1,nBack1Cond.xlsx,None,None,None,None,None,None,,,,,,,,,,,,,0,0,0,0,0,222,222,222,,,,,,,,,,,,,,,,,,,,,,,,,,,,,,,,,,,,,,,,,,None,,001,2022-09-22_09h41.16.748,test8,2022.2.4,59.986563008828796,
,,,,,,,,1,nBack1Cond.xlsx,None,None,None,None,None,None,,,,,,,,,,,,,0,0,0,0,0,223,223,223,,,,,,,,,,,,,,,,,,,,,,,,,,,,,,,,,,,,,,,,,,None,,001,2022-09-22_09h41.16.748,test8,2022.2.4,59.986563008828796,
,,,,,,,,1,nBack1Cond.xlsx,None,None,None,None,None,None,,,,,,,,,,,,,0,0,0,0,0,224,224,224,,,,,,,,,,,,,,,,,,,,,,,,,,,,,,,,,,,,,,,,,,None,,001,2022-09-22_09h41.16.748,test8,2022.2.4,59.986563008828796,
,,,,,,,,1,nBack1Cond.xlsx,None,None,None,None,None,None,,,,,,,,,,,,,0,0,0,0,0,225,225,225,,,,,,,,,,,,,,,,,,,,,,,,,,,,,,,,,,,,,,,,,,None,,001,2022-09-22_09h41.16.748,test8,2022.2.4,59.986563008828796,
,,,,,,,,1,nBack1Cond.xlsx,None,None,None,None,None,None,,,,,,,,,,,,,0,0,0,0,0,226,226,226,,,,,,,,,,,,,,,,,,,,,,,,,,,,,,,,,,,,,,,,,,None,,001,2022-09-22_09h41.16.748,test8,2022.2.4,59.986563008828796,
,,,,,,,,1,nBack1Cond.xlsx,None,None,None,None,None,None,,,,,,,,,,,,,0,0,0,0,0,227,227,227,,,,,,,,,,,,,,,,,,,,,,,,,,,,,,,,,,,,,,,,,,None,,001,2022-09-22_09h41.16.748,test8,2022.2.4,59.986563008828796,
,,,,,,,,1,nBack1Cond.xlsx,None,None,None,None,None,None,,,,,,,,,,,,,0,0,0,0,0,228,228,228,,,,,,,,,,,,,,,,,,,,,,,,,,,,,,,,,,,,,,,,,,None,,001,2022-09-22_09h41.16.748,test8,2022.2.4,59.986563008828796,
,,,,,,,,1,nBack1Cond.xlsx,None,None,None,None,None,None,,,,,,,,,,,,,0,0,0,0,0,229,229,229,,,,,,,,,,,,,,,,,,,,,,,,,,,,,,,,,,,,,,,,,,None,,001,2022-09-22_09h41.16.748,test8,2022.2.4,59.986563008828796,
,,,,,,,,1,nBack1Cond.xlsx,None,None,None,None,None,None,,,,,,,,,,,,,0,0,0,0,0,230,230,230,,,,,,,,,,,,,,,,,,,,,,,,,,,,,,,,,,,,,,,,,,None,,001,2022-09-22_09h41.16.748,test8,2022.2.4,59.986563008828796,
,,,,,,,,1,nBack1Cond.xlsx,None,None,None,None,None,None,,,,,,,,,,,,,0,0,0,0,0,231,231,231,,,,,,,,,,,,,,,,,,,,,,,,,,,,,,,,,,,,,,,,,,None,,001,2022-09-22_09h41.16.748,test8,2022.2.4,59.986563008828796,
,,,,,,,,1,nBack1Cond.xlsx,None,None,None,None,None,None,,,,,,,,,,,,,0,0,0,0,0,232,232,232,,,,,,,,,,,,,,,,,,,,,,,,,,,,,,,,,,,,,,,,,,None,,001,2022-09-22_09h41.16.748,test8,2022.2.4,59.986563008828796,
,,,,,,,,1,nBack1Cond.xlsx,None,None,None,None,None,None,,,,,,,,,,,,,0,0,0,0,0,233,233,233,,,,,,,,,,,,,,,,,,,,,,,,,,,,,,,,,,,,,,,,,,None,,001,2022-09-22_09h41.16.748,test8,2022.2.4,59.986563008828796,
,,,,,,,,1,nBack1Cond.xlsx,None,None,None,None,None,None,,,,,,,,,,,,,0,0,0,0,0,234,234,234,,,,,,,,,,,,,,,,,,,,,,,,,,,,,,,,,,,,,,,,,,None,,001,2022-09-22_09h41.16.748,test8,2022.2.4,59.986563008828796,
,,,,,,,,1,nBack1Cond.xlsx,None,None,None,None,None,None,,,,,,,,,,,,,0,0,0,0,0,235,235,235,,,,,,,,,,,,,,,,,,,,,,,,,,,,,,,,,,,,,,,,,,None,,001,2022-09-22_09h41.16.748,test8,2022.2.4,59.986563008828796,
,,,,,,,,1,nBack1Cond.xlsx,None,None,None,None,None,None,,,,,,,,,,,,,0,0,0,0,0,236,236,236,,,,,,,,,,,,,,,,,,,,,,,,,,,,,,,,,,,,,,,,,,None,,001,2022-09-22_09h41.16.748,test8,2022.2.4,59.986563008828796,
,,,,,,,,1,nBack1Cond.xlsx,None,None,None,None,None,None,,,,,,,,,,,,,0,0,0,0,0,237,237,237,,,,,,,,,,,,,,,,,,,,,,,,,,,,,,,,,,,,,,,,,,None,,001,2022-09-22_09h41.16.748,test8,2022.2.4,59.986563008828796,
,,,,,,,,1,nBack1Cond.xlsx,None,None,None,None,None,None,,,,,,,,,,,,,0,0,0,0,0,238,238,238,,,,,,,,,,,,,,,,,,,,,,,,,,,,,,,,,,,,,,,,,,None,,001,2022-09-22_09h41.16.748,test8,2022.2.4,59.986563008828796,
,,,,,,,,1,nBack1Cond.xlsx,None,None,None,None,None,None,,,,,,,,,,,,,0,0,0,0,0,239,239,239,,,,,,,,,,,,,,,,,,,,,,,,,,,,,,,,,,,,,,,,,,None,,001,2022-09-22_09h41.16.748,test8,2022.2.4,59.986563008828796,
,,,,,,,,1,nBack1Cond.xlsx,None,None,None,None,None,None,,,,,,,,,,,,,0,0,0,0,0,240,240,240,,,,,,,,,,,,,,,,,,,,,,,,,,,,,,,,,,,,,,,,,,None,,001,2022-09-22_09h41.16.748,test8,2022.2.4,59.986563008828796,
,,,,,,,,1,nBack1Cond.xlsx,None,None,None,None,None,None,,,,,,,,,,,,,0,0,0,0,0,241,241,241,,,,,,,,,,,,,,,,,,,,,,,,,,,,,,,,,,,,,,,,,,None,,001,2022-09-22_09h41.16.748,test8,2022.2.4,59.986563008828796,
,,,,,,,,1,nBack1Cond.xlsx,None,None,None,None,None,None,,,,,,,,,,,,,0,0,0,0,0,242,242,242,,,,,,,,,,,,,,,,,,,,,,,,,,,,,,,,,,,,,,,,,,None,,001,2022-09-22_09h41.16.748,test8,2022.2.4,59.986563008828796,
,,,,,,,,1,nBack1Cond.xlsx,None,None,None,None,None,None,,,,,,,,,,,,,0,0,0,0,0,243,243,243,,,,,,,,,,,,,,,,,,,,,,,,,,,,,,,,,,,,,,,,,,None,,001,2022-09-22_09h41.16.748,test8,2022.2.4,59.986563008828796,
,,,,,,,,1,nBack1Cond.xlsx,None,None,None,None,None,None,,,,,,,,,,,,,0,0,0,0,0,244,244,244,,,,,,,,,,,,,,,,,,,,,,,,,,,,,,,,,,,,,,,,,,None,,001,2022-09-22_09h41.16.748,test8,2022.2.4,59.986563008828796,
,,,,,,,,1,nBack1Cond.xlsx,None,None,None,None,None,None,,,,,,,,,,,,,0,0,0,0,0,245,245,245,,,,,,,,,,,,,,,,,,,,,,,,,,,,,,,,,,,,,,,,,,None,,001,2022-09-22_09h41.16.748,test8,2022.2.4,59.986563008828796,
,,,,,,,,1,nBack1Cond.xlsx,None,None,None,None,None,None,,,,,,,,,,,,,0,0,0,0,0,246,246,246,,,,,,,,,,,,,,,,,,,,,,,,,,,,,,,,,,,,,,,,,,None,,001,2022-09-22_09h41.16.748,test8,2022.2.4,59.986563008828796,
,,,,,,,,1,nBack1Cond.xlsx,None,None,None,None,None,None,,,,,,,,,,,,,0,0,0,0,0,247,247,247,,,,,,,,,,,,,,,,,,,,,,,,,,,,,,,,,,,,,,,,,,None,,001,2022-09-22_09h41.16.748,test8,2022.2.4,59.986563008828796,
,,,,,,,,1,nBack1Cond.xlsx,None,None,None,None,None,None,,,,,,,,,,,,,0,0,0,0,0,248,248,248,,,,,,,,,,,,,,,,,,,,,,,,,,,,,,,,,,,,,,,,,,None,,001,2022-09-22_09h41.16.748,test8,2022.2.4,59.986563008828796,
,,,,,,,,1,nBack1Cond.xlsx,None,None,None,None,None,None,,,,,,,,,,,,,0,0,0,0,0,249,249,249,,,,,,,,,,,,,,,,,,,,,,,,,,,,,,,,,,,,,,,,,,None,,001,2022-09-22_09h41.16.748,test8,2022.2.4,59.986563008828796,
,,,,,,,,1,nBack1Cond.xlsx,,,,,,,,,,,,,,,,,,,0,0,0,0,,,,,,,,,,,,,,,,,,,,,,,,,,,,,,,,,,,,,,,,,,,,,,,,001,2022-09-22_09h41.16.748,test8,2022.2.4,59.986563008828796,
