eotrial,eocinstr,eocmarker1,eocmarker2,eocmarker3,eocmarker4,itemnumber,itemtext,nbackInstruction,condsFile,nbackmarker1,square,loc1,loc2,corrAns,trialsNum,trialNum,eoecloop.thisRepN,eoecloop.thisTrialN,eoecloop.thisN,eoecloop.thisIndex,wakeup.thisRepN,wakeup.thisTrialN,wakeup.thisN,wakeup.thisIndex,questions.thisRepN,questions.thisTrialN,questions.thisN,questions.thisIndex,nb_taskloop.thisRepN,nb_taskloop.thisTrialN,nb_taskloop.thisN,nb_taskloop.thisIndex,nb_trials.thisRepN,nb_trials.thisTrialN,nb_trials.thisN,nb_trials.thisIndex,key_resp_3.keys,key_resp_3.rt,key_resp_3.started,key_resp_3.stopped,text_4.started,text_4.stopped,mouse_2.x,mouse_2.y,mouse_2.leftButton,mouse_2.midButton,mouse_2.rightButton,mouse_2.started,mouse_2.stopped,h_eoec.started,h_eoec.stopped,text_2.started,text_2.stopped,key_resp.keys,key_resp.rt,key_resp.started,key_resp.stopped,text_8.started,text_8.stopped,key_resp_10.keys,key_resp_10.rt,key_resp_10.started,key_resp_10.stopped,img_whte.started,img_whte.stopped,img_black.started,img_black.stopped,text_5.started,text_5.stopped,key_resp_4.keys,key_resp_4.rt,key_resp_4.started,key_resp_4.stopped,mouse.x,mouse.y,mouse.leftButton,mouse.midButton,mouse.rightButton,mouse.started,mouse.stopped,h_arsq.started,h_arsq.stopped,slider.response,slider.rt,slider.started,slider.stopped,text.started,text.stopped,key_resp_9.keys,key_resp_9.started,key_resp_9.stopped,instrText.started,instrText.stopped,h_nback.started,h_nback.stopped,instrImg.started,instrImg.stopped,trialResp.keys,trialResp.started,trialResp.stopped,trialSquare.started,trialSquare.stopped,trialFix.started,trialFix.stopped,gridLine1.started,gridLine1.stopped,gridLine2.started,gridLine2.stopped,gridLine3.started,gridLine3.stopped,gridLine4.started,gridLine4.stopped,gridLine5.started,gridLine5.stopped,gridLine6.started,gridLine6.stopped,gridLine7.started,gridLine7.stopped,gridLine8.started,gridLine8.stopped,trialResp.rt,endText.started,endText.stopped,key_resp_5.keys,key_resp_5.rt,key_resp_5.started,key_resp_5.stopped,text_6.started,text_6.stopped,key_resp_6.keys,key_resp_6.started,key_resp_6.stopped,h_movie.started,h_movie.stopped,key_resp_8.keys,key_resp_8.started,key_resp_8.stopped,text_7.started,text_7.stopped,key_resp_7.keys,key_resp_7.rt,key_resp_7.started,key_resp_7.stopped,participant,session,date,expName,psychopyVersion,frameRate,
,,,,,,,,,,,,,,,,,,,,,,,,,,,,,,,,,,,,,space,0.7158470000140369,10.825389700010419,None,,,,,,,,,,,,,,,,,,,,,,,,,,,,,,,,,,,,,,,,,,,,,,,,,,,,,,,,,,,,,,,,,,,,,,,,,,,,,,,,,,,,,,,,,,,,,,,,,,,,,,,,,001,2022-09-26_14h03.10.569,test9,2022.1.4,60.06597647446234,
,,,,,,,,,,,,,,,,,,,,,,,,,,,,,,,,,,,,,,,,,10.825389700010419,None,0.88796294,-0.1287037,0,0,0,0.007616540067829192,None,,,,,,,,,,,,,,,,,,,,,,,,,,,,,,,,,,,,,,,,,,,,,,,,,,,,,,,,,,,,,,,,,,,,,,,,,,,,,,,,,,,,,,,,,,,,,,,,001,2022-09-26_14h03.10.569,test9,2022.1.4,60.06597647446234,
1,eyes open,11,12,13,14,,,,,,,,,,,,0,0,0,0,,,,,,,,,,,,,,,,,,,,,,,,,,,,,,10.825389700010419,None,11.574118000047747,None,s,0.990678799978923,11.574118000047747,None,12.595971000031568,None,s,0.3044424999970943,12.595971000031568,None,,,,,,,,,,,,,,,,,,,,,,,,,,,,,,,,,,,,,,,,,,,,,,,,,,,,,,,,,,,,,,,,,,,,,,,,,,,,,,,,,,001,2022-09-26_14h03.10.569,test9,2022.1.4,60.06597647446234,
2,eyes closed,21,22,23,24,,,,,,,,,,,,0,1,1,1,,,,,,,,,,,,,,,,,,,,,,,,,,,,,,,,12.932333300006576,None,s,0.28872680000495166,12.932333300006576,None,13.246415000001434,None,s,0.29413799999747425,13.246415000001434,None,,,,,,,,,,,,,,,,,,,,,,,,,,,,,,,,,,,,,,,,,,,,,,,,,,,,,,,,,,,,,,,,,,,,,,,,,,,,,,,,,,001,2022-09-26_14h03.10.569,test9,2022.1.4,60.06597647446234,
,,,,,,,,,,,,,,,,,,,,,0,0,0,0,,,,,,,,,,,,,,,,,,,,,,,,,,,,,,,,,,,,,,,,13.560773500008509,None,13.760140600032173,None,,,,,,,,,,,,,,,,,,,,,,,,,,,,,,,,,,,,,,,,,,,,,,,,,,,,,,,,,,,,,,,,,,,,,,,,,,,,,,001,2022-09-26_14h03.10.569,test9,2022.1.4,60.06597647446234,
,,,,,,,,,,,,,,,,,,,,,1,0,1,0,,,,,,,,,,,,,,,,,,,,,,,,,,,,,,,,,,,,,,,,13.960384100035299,None,14.160486200009473,None,,,,,,,,,,,,,,,,,,,,,,,,,,,,,,,,,,,,,,,,,,,,,,,,,,,,,,,,,,,,,,,,,,,,,,,,,,,,,,001,2022-09-26_14h03.10.569,test9,2022.1.4,60.06597647446234,
,,,,,,,,,,,,,,,,,,,,,2,0,2,0,,,,,,,,,,,,,,,,,,,,,,,,,,,,,,,,,,,,,,,,14.360387100023217,None,14.56023240002105,None,,,,,,,,,,,,,,,,,,,,,,,,,,,,,,,,,,,,,,,,,,,,,,,,,,,,,,,,,,,,,,,,,,,,,,,,,,,,,,001,2022-09-26_14h03.10.569,test9,2022.1.4,60.06597647446234,
,,,,,,,,,,,,,,,,,,,,,3,0,3,0,,,,,,,,,,,,,,,,,,,,,,,,,,,,,,,,,,,,,,,,14.760441200050991,None,14.960306800028775,None,,,,,,,,,,,,,,,,,,,,,,,,,,,,,,,,,,,,,,,,,,,,,,,,,,,,,,,,,,,,,,,,,,,,,,,,,,,,,,001,2022-09-26_14h03.10.569,test9,2022.1.4,60.06597647446234,
,,,,,,,,,,,,,,,,,,,,,,,,,,,,,,,,,,,,,,,,,,,,,,,,,,,,,,,,,,,,,,,,,,,,15.160321000032127,None,s,0.4443794999970123,15.160321000032127,None,,,,,,,,,,,,,,,,,,,,,,,,,,,,,,,,,,,,,,,,,,,,,,,,,,,,,,,,,,,,,,,,,,,,,,,,001,2022-09-26_14h03.10.569,test9,2022.1.4,60.06597647446234,
,,,,,,,,,,,,,,,,,,,,,,,,,,,,,,,,,,,,,,,,,,,,,,,,,,,,,,,,,,,,,,,,,,,,,,,,,,0.88796294,-0.1287037,0,0,0,0.0156182199716568,None,,,,,,,,,,,,,,,,,,,,,,,,,,,,,,,,,,,,,,,,,,,,,,,,,,,,,,,,,,,,,,,,,001,2022-09-26_14h03.10.569,test9,2022.1.4,60.06597647446234,
,,,,,,20,I thought about my breathing,,,,,,,,,,,,,,,,,,0,0,0,19,,,,,,,,,,,,,,,,,,,,,,,,,,,,,,,,,,,,,,,,,,,,,,,,,,,,,15.160321000032127,None,None,None,None,None,None,None,None,None,None,,,,,,,,,,,,,,,,,,,,,,,,,,,,,,,,,,,,,,,,,,,,,,,,,,,,,,001,2022-09-26_14h03.10.569,test9,2022.1.4,60.06597647446234,
,,,,,,4,I thought about others,,,,,,,,,,,,,,,,,,0,1,1,3,,,,,,,,,,,,,,,,,,,,,,,,,,,,,,,,,,,,,,,,,,,,,,,,,,,,,,,None,None,None,None,None,None,None,None,None,,,,,,,,,,,,,,,,,,,,,,,,,,,,,,,,,,,,,,,,,,,,,,,,,,,,,,001,2022-09-26_14h03.10.569,test9,2022.1.4,60.06597647446234,
,,,,,,19,I was conscious of my body,,,,,,,,,,,,,,,,,,0,2,2,18,,,,,,,,,,,,,,,,,,,,,,,,,,,,,,,,,,,,,,,,,,,,,,,,,,,,,,,None,None,None,None,None,None,None,None,None,,,,,,,,,,,,,,,,,,,,,,,,,,,,,,,,,,,,,,,,,,,,,,,,,,,,,,001,2022-09-26_14h03.10.569,test9,2022.1.4,60.06597647446234,
,,,,,,9,I thought about myself,,,,,,,,,,,,,,,,,,0,3,3,8,,,,,,,,,,,,,,,,,,,,,,,,,,,,,,,,,,,,,,,,,,,,,,,,,,,,,,,None,None,None,None,None,None,None,None,None,,,,,,,,,,,,,,,,,,,,,,,,,,,,,,,,,,,,,,,,,,,,,,,,,,,,,,001,2022-09-26_14h03.10.569,test9,2022.1.4,60.06597647446234,
,,,,,,10,I thought about things I need to do,,,,,,,,,,,,,,,,,,0,4,4,9,,,,,,,,,,,,,,,,,,,,,,,,,,,,,,,,,,,,,,,,,,,,,,,,,,,,,,,None,None,None,None,None,None,None,None,None,,,,,,,,,,,,,,,,,,,,,,,,,,,,,,,,,,,,,,,,,,,,,,,,,,,,,,001,2022-09-26_14h03.10.569,test9,2022.1.4,60.06597647446234,
,,,,,,6,I thought about people I like,,,,,,,,,,,,,,,,,,0,5,5,5,,,,,,,,,,,,,,,,,,,,,,,,,,,,,,,,,,,,,,,,,,,,,,,,,,,,,,,None,None,None,None,None,None,None,None,None,,,,,,,,,,,,,,,,,,,,,,,,,,,,,,,,,,,,,,,,,,,,,,,,,,,,,,001,2022-09-26_14h03.10.569,test9,2022.1.4,60.06597647446234,
,,,,,,21,I thought about my heartbeat,,,,,,,,,,,,,,,,,,0,6,6,20,,,,,,,,,,,,,,,,,,,,,,,,,,,,,,,,,,,,,,,,,,,,,,,,,,,,,,,None,None,None,None,None,None,None,None,None,,,,,,,,,,,,,,,,,,,,,,,,,,,,,,,,,,,,,,,,,,,,,,,,,,,,,,001,2022-09-26_14h03.10.569,test9,2022.1.4,60.06597647446234,
,,,,,,25,I pictured events,,,,,,,,,,,,,,,,,,0,7,7,24,,,,,,,,,,,,,,,,,,,,,,,,,,,,,,,,,,,,,,,,,,,,,,,,,,,,,,,None,None,None,None,None,None,None,None,None,,,,,,,,,,,,,,,,,,,,,,,,,,,,,,,,,,,,,,,,,,,,,,,,,,,,,,001,2022-09-26_14h03.10.569,test9,2022.1.4,60.06597647446234,
,,,,,,24,I felt pain,,,,,,,,,,,,,,,,,,0,8,8,23,,,,,,,,,,,,,,,,,,,,,,,,,,,,,,,,,,,,,,,,,,,,,,,,,,,,,,,None,None,None,None,None,None,None,None,None,,,,,,,,,,,,,,,,,,,,,,,,,,,,,,,,,,,,,,,,,,,,,,,,,,,,,,001,2022-09-26_14h03.10.569,test9,2022.1.4,60.06597647446234,
,,,,,,33,I felt motivated to participate,,,,,,,,,,,,,,,,,,0,9,9,32,,,,,,,,,,,,,,,,,,,,,,,,,,,,,,,,,,,,,,,,,,,,,,,,,,,,,,,None,None,None,None,None,None,None,None,None,,,,,,,,,,,,,,,,,,,,,,,,,,,,,,,,,,,,,,,,,,,,,,,,,,,,,,001,2022-09-26_14h03.10.569,test9,2022.1.4,60.06597647446234,
,,,,,,5,I placed myself in other peoples shoes,,,,,,,,,,,,,,,,,,0,10,10,4,,,,,,,,,,,,,,,,,,,,,,,,,,,,,,,,,,,,,,,,,,,,,,,,,,,,,,,None,None,None,None,None,None,None,None,None,,,,,,,,,,,,,,,,,,,,,,,,,,,,,,,,,,,,,,,,,,,,,,,,,,,,,,001,2022-09-26_14h03.10.569,test9,2022.1.4,60.06597647446234,
,,,,,,26,I thought in images,,,,,,,,,,,,,,,,,,0,11,11,25,,,,,,,,,,,,,,,,,,,,,,,,,,,,,,,,,,,,,,,,,,,,,,,,,,,,,,,None,None,None,None,None,None,None,None,None,,,,,,,,,,,,,,,,,,,,,,,,,,,,,,,,,,,,,,,,,,,,,,,,,,,,,,001,2022-09-26_14h03.10.569,test9,2022.1.4,60.06597647446234,
,,,,,,11,I thought about solving problems,,,,,,,,,,,,,,,,,,0,12,12,10,,,,,,,,,,,,,,,,,,,,,,,,,,,,,,,,,,,,,,,,,,,,,,,,,,,,,,,None,None,None,None,None,None,None,None,None,,,,,,,,,,,,,,,,,,,,,,,,,,,,,,,,,,,,,,,,,,,,,,,,,,,,,,001,2022-09-26_14h03.10.569,test9,2022.1.4,60.06597647446234,
,,,,,,15,I had difficulty staying awake,,,,,,,,,,,,,,,,,,0,13,13,14,,,,,,,,,,,,,,,,,,,,,,,,,,,,,,,,,,,,,,,,,,,,,,,,,,,,,,,None,None,None,None,None,None,None,None,None,,,,,,,,,,,,,,,,,,,,,,,,,,,,,,,,,,,,,,,,,,,,,,,,,,,,,,001,2022-09-26_14h03.10.569,test9,2022.1.4,60.06597647446234,
,,,,,,28,I had silent conversations,,,,,,,,,,,,,,,,,,0,14,14,27,,,,,,,,,,,,,,,,,,,,,,,,,,,,,,,,,,,,,,,,,,,,,,,,,,,,,,,None,None,None,None,None,None,None,None,None,,,,,,,,,,,,,,,,,,,,,,,,,,,,,,,,,,,,,,,,,,,,,,,,,,,,,,001,2022-09-26_14h03.10.569,test9,2022.1.4,60.06597647446234,
,,,,,,31,I had difficulty remembering my thoughts,,,,,,,,,,,,,,,,,,0,15,15,30,,,,,,,,,,,,,,,,,,,,,,,,,,,,,,,,,,,,,,,,,,,,,,,,,,,,,,,None,None,None,None,None,None,None,None,None,,,,,,,,,,,,,,,,,,,,,,,,,,,,,,,,,,,,,,,,,,,,,,,,,,,,,,001,2022-09-26_14h03.10.569,test9,2022.1.4,60.06597647446234,
,,,,,,18,I felt happy,,,,,,,,,,,,,,,,,,0,16,16,17,,,,,,,,,,,,,,,,,,,,,,,,,,,,,,,,,,,,,,,,,,,,,,,,,,,,,,,None,None,None,None,None,None,None,None,None,,,,,,,,,,,,,,,,,,,,,,,,,,,,,,,,,,,,,,,,,,,,,,,,,,,,,,001,2022-09-26_14h03.10.569,test9,2022.1.4,60.06597647446234,
,,,,,,22,I felt ill,,,,,,,,,,,,,,,,,,0,17,17,21,,,,,,,,,,,,,,,,,,,,,,,,,,,,,,,,,,,,,,,,,,,,,,,,,,,,,,,None,None,None,None,None,None,None,None,None,,,,,,,,,,,,,,,,,,,,,,,,,,,,,,,,,,,,,,,,,,,,,,,,,,,,,,001,2022-09-26_14h03.10.569,test9,2022.1.4,60.06597647446234,
,,,,,,13,I felt tired,,,,,,,,,,,,,,,,,,0,18,18,12,,,,,,,,,,,,,,,,,,,,,,,,,,,,,,,,,,,,,,,,,,,,,,,,,,,,,,,None,None,None,None,None,None,None,None,None,,,,,,,,,,,,,,,,,,,,,,,,,,,,,,,,,,,,,,,,,,,,,,,,,,,,,,001,2022-09-26_14h03.10.569,test9,2022.1.4,60.06597647446234,
,,,,,,23,I thought about my health,,,,,,,,,,,,,,,,,,0,19,19,22,,,,,,,,,,,,,,,,,,,,,,,,,,,,,,,,,,,,,,,,,,,,,,,,,,,,,,,None,None,None,None,None,None,None,None,None,,,,,,,,,,,,,,,,,,,,,,,,,,,,,,,,,,,,,,,,,,,,,,,,,,,,,,001,2022-09-26_14h03.10.569,test9,2022.1.4,60.06597647446234,
,,,,,,7,I thought about my feelings,,,,,,,,,,,,,,,,,,0,20,20,6,,,,,,,,,,,,,,,,,,,,,,,,,,,,,,,,,,,,,,,,,,,,,,,,,,,,,,,None,None,None,None,None,None,None,None,None,,,,,,,,,,,,,,,,,,,,,,,,,,,,,,,,,,,,,,,,,,,,,,,,,,,,,,001,2022-09-26_14h03.10.569,test9,2022.1.4,60.06597647446234,
,,,,,,16,I felt comfortable,,,,,,,,,,,,,,,,,,0,21,21,15,,,,,,,,,,,,,,,,,,,,,,,,,,,,,,,,,,,,,,,,,,,,,,,,,,,,,,,None,None,None,None,None,None,None,None,None,,,,,,,,,,,,,,,,,,,,,,,,,,,,,,,,,,,,,,,,,,,,,,,,,,,,,,001,2022-09-26_14h03.10.569,test9,2022.1.4,60.06597647446234,
,,,,,,8,I thought about my behavior,,,,,,,,,,,,,,,,,,0,22,22,7,,,,,,,,,,,,,,,,,,,,,,,,,,,,,,,,,,,,,,,,,,,,,,,,,,,,,,,None,None,None,None,None,None,None,None,None,,,,,,,,,,,,,,,,,,,,,,,,,,,,,,,,,,,,,,,,,,,,,,,,,,,,,,001,2022-09-26_14h03.10.569,test9,2022.1.4,60.06597647446234,
,,,,,,32,I had difficulty remembering my feelings,,,,,,,,,,,,,,,,,,0,23,23,31,,,,,,,,,,,,,,,,,,,,,,,,,,,,,,,,,,,,,,,,,,,,,,,,,,,,,,,None,None,None,None,None,None,None,None,None,,,,,,,,,,,,,,,,,,,,,,,,,,,,,,,,,,,,,,,,,,,,,,,,,,,,,,001,2022-09-26_14h03.10.569,test9,2022.1.4,60.06597647446234,
,,,,,,1,I had busy thoughts,,,,,,,,,,,,,,,,,,0,24,24,0,,,,,,,,,,,,,,,,,,,,,,,,,,,,,,,,,,,,,,,,,,,,,,,,,,,,,,,None,None,None,None,None,None,None,None,None,,,,,,,,,,,,,,,,,,,,,,,,,,,,,,,,,,,,,,,,,,,,,,,,,,,,,,001,2022-09-26_14h03.10.569,test9,2022.1.4,60.06597647446234,
,,,,,,3,I had difficulty holding on to my thoughts,,,,,,,,,,,,,,,,,,0,25,25,2,,,,,,,,,,,,,,,,,,,,,,,,,,,,,,,,,,,,,,,,,,,,,,,,,,,,,,,None,None,None,None,None,None,None,None,None,,,,,,,,,,,,,,,,,,,,,,,,,,,,,,,,,,,,,,,,,,,,,,,,,,,,,,001,2022-09-26_14h03.10.569,test9,2022.1.4,60.06597647446234,
,,,,,,14,I felt sleepy,,,,,,,,,,,,,,,,,,0,26,26,13,,,,,,,,,,,,,,,,,,,,,,,,,,,,,,,,,,,,,,,,,,,,,,,,,,,,,,,None,None,None,None,None,None,None,None,None,,,,,,,,,,,,,,,,,,,,,,,,,,,,,,,,,,,,,,,,,,,,,,,,,,,,,,001,2022-09-26_14h03.10.569,test9,2022.1.4,60.06597647446234,
,,,,,,17,I felt relaxed,,,,,,,,,,,,,,,,,,0,27,27,16,,,,,,,,,,,,,,,,,,,,,,,,,,,,,,,,,,,,,,,,,,,,,,,,,,,,,,,None,None,None,None,None,None,None,None,None,,,,,,,,,,,,,,,,,,,,,,,,,,,,,,,,,,,,,,,,,,,,,,,,,,,,,,001,2022-09-26_14h03.10.569,test9,2022.1.4,60.06597647446234,
,,,,,,29,I thought in words,,,,,,,,,,,,,,,,,,0,28,28,28,,,,,,,,,,,,,,,,,,,,,,,,,,,,,,,,,,,,,,,,,,,,,,,,,,,,,,,None,None,None,None,None,None,None,None,None,,,,,,,,,,,,,,,,,,,,,,,,,,,,,,,,,,,,,,,,,,,,,,,,,,,,,,001,2022-09-26_14h03.10.569,test9,2022.1.4,60.06597647446234,
,,,,,,35,I was able to rate the statements,,,,,,,,,,,,,,,,,,0,29,29,34,,,,,,,,,,,,,,,,,,,,,,,,,,,,,,,,,,,,,,,,,,,,,,,,,,,,,,,None,None,None,None,None,None,None,None,None,,,,,,,,,,,,,,,,,,,,,,,,,,,,,,,,,,,,,,,,,,,,,,,,,,,,,,001,2022-09-26_14h03.10.569,test9,2022.1.4,60.06597647446234,
,,,,,,27,I pictured places,,,,,,,,,,,,,,,,,,0,30,30,26,,,,,,,,,,,,,,,,,,,,,,,,,,,,,,,,,,,,,,,,,,,,,,,,,,,,,,,None,None,None,None,None,None,None,None,None,,,,,,,,,,,,,,,,,,,,,,,,,,,,,,,,,,,,,,,,,,,,,,,,,,,,,,001,2022-09-26_14h03.10.569,test9,2022.1.4,60.06597647446234,
,,,,,,2,I had rapidly switching thoughts,,,,,,,,,,,,,,,,,,0,31,31,1,,,,,,,,,,,,,,,,,,,,,,,,,,,,,,,,,,,,,,,,,,,,,,,,,,,,,,,None,None,None,None,None,None,None,None,None,,,,,,,,,,,,,,,,,,,,,,,,,,,,,,,,,,,,,,,,,,,,,,,,,,,,,,001,2022-09-26_14h03.10.569,test9,2022.1.4,60.06597647446234,
,,,,,,12,I thought about the future,,,,,,,,,,,,,,,,,,0,32,32,11,,,,,,,,,,,,,,,,,,,,,,,,,,,,,,,,,,,,,,,,,,,,,,,,,,,,,,,None,None,None,None,None,None,None,None,None,,,,,,,,,,,,,,,,,,,,,,,,,,,,,,,,,,,,,,,,,,,,,,,,,,,,,,001,2022-09-26_14h03.10.569,test9,2022.1.4,60.06597647446234,
,,,,,,34,I had my eyes closed,,,,,,,,,,,,,,,,,,0,33,33,33,,,,,,,,,,,,,,,,,,,,,,,,,,,,,,,,,,,,,,,,,,,,,,,,,,,,,,,None,None,None,None,None,None,None,None,None,,,,,,,,,,,,,,,,,,,,,,,,,,,,,,,,,,,,,,,,,,,,,,,,,,,,,,001,2022-09-26_14h03.10.569,test9,2022.1.4,60.06597647446234,
,,,,,,30,I imagined talking to myself,,,,,,,,,,,,,,,,,,0,34,34,29,,,,,,,,,,,,,,,,,,,,,,,,,,,,,,,,,,,,,,,,,,,,,,,,,,,,,,,None,None,None,None,None,None,None,None,None,,,,,,,,,,,,,,,,,,,,,,,,,,,,,,,,,,,,,,,,,,,,,,,,,,,,,,001,2022-09-26_14h03.10.569,test9,2022.1.4,60.06597647446234,
,,,,,,,,1,nBack1Cond.xlsx,111,6,0.2,0,None,1,1,,,,,,,,,,,,,0,0,0,0,0,0,0,0,,,,,,,,,,,,,,,,,,,,,,,,,,,,,,,,,,,,,,,,,,,,,,,,,,,,,,,,16.46917769999709,None,16.46917769999709,None,16.46917769999709,None,None,41.17590540001402,None,41.17590540001402,42.177399400039576,42.160443100030534,None,41.17590540001402,None,41.17590540001402,None,41.17590540001402,None,41.17590540001402,None,41.17590540001402,None,41.17590540001402,None,41.17590540001402,None,41.17590540001402,None,,,,,,,,,,,,,,,,,,,,,,,,,001,2022-09-26_14h03.10.569,test9,2022.1.4,60.06597647446234,
,,,,,,,,1,nBack1Cond.xlsx,111,6,0.2,0,space,1,2,,,,,,,,,,,,,0,0,0,0,0,1,1,1,,,,,,,,,,,,,,,,,,,,,,,,,,,,,,,,,,,,,,,,,,,,,,,,,,,,,,,,,,,,,,None,43.16580880002584,None,43.16580880002584,44.177416699996684,44.16064980003284,None,43.16580880002584,None,43.16580880002584,None,43.16580880002584,None,43.16580880002584,None,43.16580880002584,None,43.16580880002584,None,43.16580880002584,None,43.16580880002584,None,,,,,,,,,,,,,,,,,,,,,,,,,001,2022-09-26_14h03.10.569,test9,2022.1.4,60.06597647446234,
,,,,,,,,1,nBack1Cond.xlsx,111,2,0,0.2,None,1,3,,,,,,,,,,,,,0,0,0,0,0,2,2,2,,,,,,,,,,,,,,,,,,,,,,,,,,,,,,,,,,,,,,,,,,,,,,,,,,,,,,,,,,,,,,None,45.16527890000725,None,45.16527890000725,46.177142500004265,46.160373500024434,None,45.16527890000725,None,45.16527890000725,None,45.16527890000725,None,45.16527890000725,None,45.16527890000725,None,45.16527890000725,None,45.16527890000725,None,45.16527890000725,None,,,,,,,,,,,,,,,,,,,,,,,,,001,2022-09-26_14h03.10.569,test9,2022.1.4,60.06597647446234,
,,,,,,,,1,nBack1Cond.xlsx,111,9,0.2,-0.2,None,1,4,,,,,,,,,,,,,0,0,0,0,0,3,3,3,,,,,,,,,,,,,,,,,,,,,,,,,,,,,,,,,,,,,,,,,,,,,,,,,,,,,,,,,,,,,,None,47.1665305000497,None,47.1665305000497,48.17677610000828,48.1601829000283,None,47.1665305000497,None,47.1665305000497,None,47.1665305000497,None,47.1665305000497,None,47.1665305000497,None,47.1665305000497,None,47.1665305000497,None,47.1665305000497,None,,,,,,,,,,,,,,,,,,,,,,,,,001,2022-09-26_14h03.10.569,test9,2022.1.4,60.06597647446234,
,,,,,,,,1,nBack1Cond.xlsx,111,9,0.2,-0.2,space,1,5,,,,,,,,,,,,,0,0,0,0,0,4,4,4,,,,,,,,,,,,,,,,,,,,,,,,,,,,,,,,,,,,,,,,,,,,,,,,,,,,,,,,,,,,,,space,49.165837300010026,None,49.165837300010026,50.17739690002054,50.160363300004974,None,49.165837300010026,None,49.165837300010026,None,49.165837300010026,None,49.165837300010026,None,49.165837300010026,None,49.165837300010026,None,49.165837300010026,None,49.165837300010026,None,0.511037899996154,,,,,,,,,,,,,,,,,,,,,,,,001,2022-09-26_14h03.10.569,test9,2022.1.4,60.06597647446234,
,,,,,,,,1,nBack1Cond.xlsx,111,6,0.2,0,None,1,6,,,,,,,,,,,,,0,0,0,0,0,5,5,5,,,,,,,,,,,,,,,,,,,,,,,,,,,,,,,,,,,,,,,,,,,,,,,,,,,,,,,,,,,,,,None,51.164811499998905,None,51.164811499998905,52.1779481000267,52.15977940004086,None,51.164811499998905,None,51.164811499998905,None,51.164811499998905,None,51.164811499998905,None,51.164811499998905,None,51.164811499998905,None,51.164811499998905,None,51.164811499998905,None,,,,,,,,,,,,,,,,,,,,,,,,,001,2022-09-26_14h03.10.569,test9,2022.1.4,60.06597647446234,
,,,,,,,,1,nBack1Cond.xlsx,111,4,-0.2,0,None,1,7,,,,,,,,,,,,,0,0,0,0,0,6,6,6,,,,,,,,,,,,,,,,,,,,,,,,,,,,,,,,,,,,,,,,,,,,,,,,,,,,,,,,,,,,,,None,53.165817100030836,None,53.165817100030836,54.176539000007324,54.15998850000324,None,53.165817100030836,None,53.165817100030836,None,53.165817100030836,None,53.165817100030836,None,53.165817100030836,None,53.165817100030836,None,53.165817100030836,None,53.165817100030836,None,,,,,,,,,,,,,,,,,,,,,,,,,001,2022-09-26_14h03.10.569,test9,2022.1.4,60.06597647446234,
,,,,,,,,1,nBack1Cond.xlsx,111,3,0.2,0.2,None,1,8,,,,,,,,,,,,,0,0,0,0,0,7,7,7,,,,,,,,,,,,,,,,,,,,,,,,,,,,,,,,,,,,,,,,,,,,,,,,,,,,,,,,,,,,,,None,55.165380600024946,None,55.165380600024946,56.177658800035715,56.1603635000065,None,55.165380600024946,None,55.165380600024946,None,55.165380600024946,None,55.165380600024946,None,55.165380600024946,None,55.165380600024946,None,55.165380600024946,None,55.165380600024946,None,,,,,,,,,,,,,,,,,,,,,,,,,001,2022-09-26_14h03.10.569,test9,2022.1.4,60.06597647446234,
,,,,,,,,1,nBack1Cond.xlsx,111,3,0.2,0.2,space,1,9,,,,,,,,,,,,,0,0,0,0,0,8,8,8,,,,,,,,,,,,,,,,,,,,,,,,,,,,,,,,,,,,,,,,,,,,,,,,,,,,,,,,,,,,,,space,57.166232600051444,None,57.166232600051444,58.17690430005314,58.16004000004614,None,57.166232600051444,None,57.166232600051444,None,57.166232600051444,None,57.166232600051444,None,57.166232600051444,None,57.166232600051444,None,57.166232600051444,None,57.166232600051444,None,0.3182692999835126,,,,,,,,,,,,,,,,,,,,,,,,001,2022-09-26_14h03.10.569,test9,2022.1.4,60.06597647446234,
,,,,,,,,1,nBack1Cond.xlsx,111,8,0,-0.2,None,1,10,,,,,,,,,,,,,0,0,0,0,0,9,9,9,,,,,,,,,,,,,,,,,,,,,,,,,,,,,,,,,,,,,,,,,,,,,,,,,,,,,,,,,,,,,,None,59.16459570004372,None,59.16459570004372,60.17717180005275,60.16014710004674,None,59.16459570004372,None,59.16459570004372,None,59.16459570004372,None,59.16459570004372,None,59.16459570004372,None,59.16459570004372,None,59.16459570004372,None,59.16459570004372,None,,,,,,,,,,,,,,,,,,,,,,,,,001,2022-09-26_14h03.10.569,test9,2022.1.4,60.06597647446234,
,,,,,,,,1,nBack1Cond.xlsx,111,1,-0.2,0.2,None,1,11,,,,,,,,,,,,,0,0,0,0,0,10,10,10,,,,,,,,,,,,,,,,,,,,,,,,,,,,,,,,,,,,,,,,,,,,,,,,,,,,,,,,,,,,,,None,61.16637740004808,None,61.16637740004808,62.177673600031994,62.160993800032884,None,61.16637740004808,None,61.16637740004808,None,61.16637740004808,None,61.16637740004808,None,61.16637740004808,None,61.16637740004808,None,61.16637740004808,None,61.16637740004808,None,,,,,,,,,,,,,,,,,,,,,,,,,001,2022-09-26_14h03.10.569,test9,2022.1.4,60.06597647446234,
,,,,,,,,1,nBack1Cond.xlsx,111,2,0,0.2,None,1,12,,,,,,,,,,,,,0,0,0,0,0,11,11,11,,,,,,,,,,,,,,,,,,,,,,,,,,,,,,,,,,,,,,,,,,,,,,,,,,,,,,,,,,,,,,None,63.16636970004765,None,63.16636970004765,64.17750370001886,64.1606357000419,None,63.16636970004765,None,63.16636970004765,None,63.16636970004765,None,63.16636970004765,None,63.16636970004765,None,63.16636970004765,None,63.16636970004765,None,63.16636970004765,None,,,,,,,,,,,,,,,,,,,,,,,,,001,2022-09-26_14h03.10.569,test9,2022.1.4,60.06597647446234,
,,,,,,,,1,nBack1Cond.xlsx,111,4,-0.2,0,None,1,13,,,,,,,,,,,,,0,0,0,0,0,12,12,12,,,,,,,,,,,,,,,,,,,,,,,,,,,,,,,,,,,,,,,,,,,,,,,,,,,,,,,,,,,,,,None,65.16560990002472,None,65.16560990002472,66.17718890000833,66.16056920000119,None,65.16560990002472,None,65.16560990002472,None,65.16560990002472,None,65.16560990002472,None,65.16560990002472,None,65.16560990002472,None,65.16560990002472,None,65.16560990002472,None,,,,,,,,,,,,,,,,,,,,,,,,,001,2022-09-26_14h03.10.569,test9,2022.1.4,60.06597647446234,
,,,,,,,,1,nBack1Cond.xlsx,111,4,-0.2,0,space,1,14,,,,,,,,,,,,,0,0,0,0,0,13,13,13,,,,,,,,,,,,,,,,,,,,,,,,,,,,,,,,,,,,,,,,,,,,,,,,,,,,,,,,,,,,,,space,67.16648360004183,None,67.16648360004183,68.17761180002708,68.16055319999577,None,67.16648360004183,None,67.16648360004183,None,67.16648360004183,None,67.16648360004183,None,67.16648360004183,None,67.16648360004183,None,67.16648360004183,None,67.16648360004183,None,0.3023564000031911,,,,,,,,,,,,,,,,,,,,,,,,001,2022-09-26_14h03.10.569,test9,2022.1.4,60.06597647446234,
,,,,,,,,1,nBack1Cond.xlsx,111,8,0,-0.2,None,1,15,,,,,,,,,,,,,0,0,0,0,0,14,14,14,,,,,,,,,,,,,,,,,,,,,,,,,,,,,,,,,,,,,,,,,,,,,,,,,,,,,,,,,,,,,,None,69.16628720000153,None,69.16628720000153,70.17712130001746,70.16063790000044,None,69.16628720000153,None,69.16628720000153,None,69.16628720000153,None,69.16628720000153,None,69.16628720000153,None,69.16628720000153,None,69.16628720000153,None,69.16628720000153,None,,,,,,,,,,,,,,,,,,,,,,,,,001,2022-09-26_14h03.10.569,test9,2022.1.4,60.06597647446234,
,,,,,,,,1,nBack1Cond.xlsx,111,5,0,0,None,1,16,,,,,,,,,,,,,0,0,0,0,0,15,15,15,,,,,,,,,,,,,,,,,,,,,,,,,,,,,,,,,,,,,,,,,,,,,,,,,,,,,,,,,,,,,,None,71.16596010001376,None,71.16596010001376,72.17739940003958,72.16065630002413,None,71.16596010001376,None,71.16596010001376,None,71.16596010001376,None,71.16596010001376,None,71.16596010001376,None,71.16596010001376,None,71.16596010001376,None,71.16596010001376,None,,,,,,,,,,,,,,,,,,,,,,,,,001,2022-09-26_14h03.10.569,test9,2022.1.4,60.06597647446234,
,,,,,,,,1,nBack1Cond.xlsx,111,5,0,0,space,1,17,,,,,,,,,,,,,0,0,0,0,0,16,16,16,,,,,,,,,,,,,,,,,,,,,,,,,,,,,,,,,,,,,,,,,,,,,,,,,,,,,,,,,,,,,,space,73.16589940001722,None,73.16589940001722,74.1775608000462,74.16007800004445,None,73.16589940001722,None,73.16589940001722,None,73.16589940001722,None,73.16589940001722,None,73.16589940001722,None,73.16589940001722,None,73.16589940001722,None,73.16589940001722,None,0.5189815000048839,,,,,,,,,,,,,,,,,,,,,,,,001,2022-09-26_14h03.10.569,test9,2022.1.4,60.06597647446234,
,,,,,,,,1,nBack1Cond.xlsx,111,1,-0.2,0.2,None,1,18,,,,,,,,,,,,,0,0,0,0,0,17,17,17,,,,,,,,,,,,,,,,,,,,,,,,,,,,,,,,,,,,,,,,,,,,,,,,,,,,,,,,,,,,,,None,75.16555570001947,None,75.16555570001947,76.17711360001704,76.16030540002976,None,75.16555570001947,None,75.16555570001947,None,75.16555570001947,None,75.16555570001947,None,75.16555570001947,None,75.16555570001947,None,75.16555570001947,None,75.16555570001947,None,,,,,,,,,,,,,,,,,,,,,,,,,001,2022-09-26_14h03.10.569,test9,2022.1.4,60.06597647446234,
,,,,,,,,1,nBack1Cond.xlsx,111,3,0.2,0.2,None,1,19,,,,,,,,,,,,,0,0,0,0,0,18,18,18,,,,,,,,,,,,,,,,,,,,,,,,,,,,,,,,,,,,,,,,,,,,,,,,,,,,,,,,,,,,,,s,77.16651710000588,None,77.16651710000588,78.17770860000746,78.16025090002222,None,77.16651710000588,None,77.16651710000588,None,77.16651710000588,None,77.16651710000588,None,77.16651710000588,None,77.16651710000588,None,77.16651710000588,None,77.16651710000588,None,0.48649049998493865,,,,,,,,,,,,,,,,,,,,,,,,001,2022-09-26_14h03.10.569,test9,2022.1.4,60.06597647446234,
,,,,,,,,1,nBack1Cond.xlsx,111,6,0.2,0,None,1,20,,,,,,,,,,,,,0,0,0,0,0,19,19,19,,,,,,,,,,,,,,,,,,,,,,,,,,,,,,,,,,,,,,,,,,,,,,,,,,,,,,,,,,,,,,,,,,,,,,,,,,,,,,,,,,,,,,,,,,,,,,,,,,,,,,,,,,,,,001,2022-09-26_14h03.10.569,test9,2022.1.4,60.06597647446234,
,,,,,,,,2,nBack2Cond.xlsx,121,5,0,0,None,2,120,,,,,,,,,,,,,0,1,1,1,0,0,0,0,,,,,,,,,,,,,,,,,,,,,,,,,,,,,,,,,,,,,,,,,,,,,,,,,,,,,,,,79.20701390004251,None,79.20701390004251,None,79.20701390004251,None,None,966.4393303000252,None,966.4393303000252,967.4451762000099,967.4282383000245,None,966.4393303000252,None,966.4393303000252,None,966.4393303000252,None,966.4393303000252,None,966.4393303000252,None,966.4393303000252,None,966.4393303000252,None,966.4393303000252,None,,,,,,,,,,,,,,,,,,,,,,,,,001,2022-09-26_14h03.10.569,test9,2022.1.4,60.06597647446234,
,,,,,,,,2,nBack2Cond.xlsx,121,2,0,0.2,None,2,121,,,,,,,,,,,,,0,1,1,1,0,1,1,1,,,,,,,,,,,,,,,,,,,,,,,,,,,,,,,,,,,,,,,,,,,,,,,,,,,,,,,,,,,,,,None,968.4330877000466,None,968.4330877000466,969.444979300024,969.428261300025,None,968.4330877000466,None,968.4330877000466,None,968.4330877000466,None,968.4330877000466,None,968.4330877000466,None,968.4330877000466,None,968.4330877000466,None,968.4330877000466,None,,,,,,,,,,,,,,,,,,,,,,,,,001,2022-09-26_14h03.10.569,test9,2022.1.4,60.06597647446234,
,,,,,,,,2,nBack2Cond.xlsx,121,6,0.2,0,None,2,122,,,,,,,,,,,,,0,1,1,1,0,2,2,2,,,,,,,,,,,,,,,,,,,,,,,,,,,,,,,,,,,,,,,,,,,,,,,,,,,,,,,,,,,,,,None,970.4301939000143,None,970.4301939000143,971.4452093000291,971.4282825000118,None,970.4301939000143,None,970.4301939000143,None,970.4301939000143,None,970.4301939000143,None,970.4301939000143,None,970.4301939000143,None,970.4301939000143,None,970.4301939000143,None,,,,,,,,,,,,,,,,,,,,,,,,,001,2022-09-26_14h03.10.569,test9,2022.1.4,60.06597647446234,
,,,,,,,,2,nBack2Cond.xlsx,121,9,0.2,-0.2,None,2,123,,,,,,,,,,,,,0,1,1,1,0,3,3,3,,,,,,,,,,,,,,,,,,,,,,,,,,,,,,,,,,,,,,,,,,,,,,,,,,,,,,,,,,,,,,None,972.4318178000394,None,972.4318178000394,973.4451595999999,973.4283036999987,None,972.4318178000394,None,972.4318178000394,None,972.4318178000394,None,972.4318178000394,None,972.4318178000394,None,972.4318178000394,None,972.4318178000394,None,972.4318178000394,None,,,,,,,,,,,,,,,,,,,,,,,,,001,2022-09-26_14h03.10.569,test9,2022.1.4,60.06597647446234,
,,,,,,,,2,nBack2Cond.xlsx,121,3,0.2,0.2,None,2,124,,,,,,,,,,,,,0,1,1,1,0,4,4,4,,,,,,,,,,,,,,,,,,,,,,,,,,,,,,,,,,,,,,,,,,,,,,,,,,,,,,,,,,,,,,None,974.430345300003,None,974.430345300003,975.4455843000324,975.4284207000164,None,974.430345300003,None,974.430345300003,None,974.430345300003,None,974.430345300003,None,974.430345300003,None,974.430345300003,None,974.430345300003,None,974.430345300003,None,,,,,,,,,,,,,,,,,,,,,,,,,001,2022-09-26_14h03.10.569,test9,2022.1.4,60.06597647446234,
,,,,,,,,2,nBack2Cond.xlsx,121,9,0.2,-0.2,space,2,125,,,,,,,,,,,,,0,1,1,1,0,5,5,5,,,,,,,,,,,,,,,,,,,,,,,,,,,,,,,,,,,,,,,,,,,,,,,,,,,,,,,,,,,,,,space,976.4314447000506,None,976.4314447000506,977.4452125000535,977.4283095000428,None,976.4314447000506,None,976.4314447000506,None,976.4314447000506,None,976.4314447000506,None,976.4314447000506,None,976.4314447000506,None,976.4314447000506,None,976.4314447000506,None,0.3109415000071749,,,,,,,,,,,,,,,,,,,,,,,,001,2022-09-26_14h03.10.569,test9,2022.1.4,60.06597647446234,
,,,,,,,,2,nBack2Cond.xlsx,121,7,-0.2,-0.2,None,2,126,,,,,,,,,,,,,0,1,1,1,0,6,6,6,,,,,,,,,,,,,,,,,,,,,,,,,,,,,,,,,,,,,,,,,,,,,,,,,,,,,,,,,,,,,,None,978.4303972000489,None,978.4303972000489,979.4450001000077,979.4284191000042,None,978.4303972000489,None,978.4303972000489,None,978.4303972000489,None,978.4303972000489,None,978.4303972000489,None,978.4303972000489,None,978.4303972000489,None,978.4303972000489,None,,,,,,,,,,,,,,,,,,,,,,,,,001,2022-09-26_14h03.10.569,test9,2022.1.4,60.06597647446234,
,,,,,,,,2,nBack2Cond.xlsx,121,1,-0.2,0.2,None,2,127,,,,,,,,,,,,,0,1,1,1,0,7,7,7,,,,,,,,,,,,,,,,,,,,,,,,,,,,,,,,,,,,,,,,,,,,,,,,,,,,,,,,,,,,,,None,980.4302912999992,None,980.4302912999992,981.4452039000462,981.4282915000222,None,980.4302912999992,None,980.4302912999992,None,980.4302912999992,None,980.4302912999992,None,980.4302912999992,None,980.4302912999992,None,980.4302912999992,None,980.4302912999992,None,,,,,,,,,,,,,,,,,,,,,,,,,001,2022-09-26_14h03.10.569,test9,2022.1.4,60.06597647446234,
,,,,,,,,2,nBack2Cond.xlsx,121,5,0,0,None,2,128,,,,,,,,,,,,,0,1,1,1,0,8,8,8,,,,,,,,,,,,,,,,,,,,,,,,,,,,,,,,,,,,,,,,,,,,,,,,,,,,,,,,,,,,,,None,982.4319261000492,None,982.4319261000492,983.4452916000155,983.4283709000447,None,982.4319261000492,None,982.4319261000492,None,982.4319261000492,None,982.4319261000492,None,982.4319261000492,None,982.4319261000492,None,982.4319261000492,None,982.4319261000492,None,,,,,,,,,,,,,,,,,,,,,,,,,001,2022-09-26_14h03.10.569,test9,2022.1.4,60.06597647446234,
,,,,,,,,2,nBack2Cond.xlsx,121,7,-0.2,-0.2,None,2,129,,,,,,,,,,,,,0,1,1,1,0,9,9,9,,,,,,,,,,,,,,,,,,,,,,,,,,,,,,,,,,,,,,,,,,,,,,,,,,,,,,,,,,,,,,None,984.4307169000385,None,984.4307169000385,985.4457307000412,985.4283411000506,None,984.4307169000385,None,984.4307169000385,None,984.4307169000385,None,984.4307169000385,None,984.4307169000385,None,984.4307169000385,None,984.4307169000385,None,984.4307169000385,None,,,,,,,,,,,,,,,,,,,,,,,,,001,2022-09-26_14h03.10.569,test9,2022.1.4,60.06597647446234,
,,,,,,,,2,nBack2Cond.xlsx,121,5,0,0,space,2,130,,,,,,,,,,,,,0,1,1,1,0,10,10,10,,,,,,,,,,,,,,,,,,,,,,,,,,,,,,,,,,,,,,,,,,,,,,,,,,,,,,,,,,,,,,space,986.4326465000049,None,986.4326465000049,987.445216400025,987.4284164000419,None,986.4326465000049,None,986.4326465000049,None,986.4326465000049,None,986.4326465000049,None,986.4326465000049,None,986.4326465000049,None,986.4326465000049,None,986.4326465000049,None,0.44474410003749654,,,,,,,,,,,,,,,,,,,,,,,,001,2022-09-26_14h03.10.569,test9,2022.1.4,60.06597647446234,
,,,,,,,,2,nBack2Cond.xlsx,121,6,0.2,0,None,2,131,,,,,,,,,,,,,0,1,1,1,0,11,11,11,,,,,,,,,,,,,,,,,,,,,,,,,,,,,,,,,,,,,,,,,,,,,,,,,,,,,,,,,,,,,,None,988.4312664000317,None,988.4312664000317,989.4452969999984,989.4286514000269,None,988.4312664000317,None,988.4312664000317,None,988.4312664000317,None,988.4312664000317,None,988.4312664000317,None,988.4312664000317,None,988.4312664000317,None,988.4312664000317,None,,,,,,,,,,,,,,,,,,,,,,,,,001,2022-09-26_14h03.10.569,test9,2022.1.4,60.06597647446234,
,,,,,,,,2,nBack2Cond.xlsx,121,3,0.2,0.2,None,2,132,,,,,,,,,,,,,0,1,1,1,0,12,12,12,,,,,,,,,,,,,,,,,,,,,,,,,,,,,,,,,,,,,,,,,,,,,,,,,,,,,,,,,,,,,,None,990.4325925000012,None,990.4325925000012,991.445198100002,991.4285060000257,None,990.4325925000012,None,990.4325925000012,None,990.4325925000012,None,990.4325925000012,None,990.4325925000012,None,990.4325925000012,None,990.4325925000012,None,990.4325925000012,None,,,,,,,,,,,,,,,,,,,,,,,,,001,2022-09-26_14h03.10.569,test9,2022.1.4,60.06597647446234,
,,,,,,,,2,nBack2Cond.xlsx,121,6,0.2,0,space,2,133,,,,,,,,,,,,,0,1,1,1,0,13,13,13,,,,,,,,,,,,,,,,,,,,,,,,,,,,,,,,,,,,,,,,,,,,,,,,,,,,,,,,,,,,,,space,992.4301976000424,None,992.4301976000424,993.4452138000051,993.4287072000443,None,992.4301976000424,None,992.4301976000424,None,992.4301976000424,None,992.4301976000424,None,992.4301976000424,None,992.4301976000424,None,992.4301976000424,None,992.4301976000424,None,0.4314913999987766,,,,,,,,,,,,,,,,,,,,,,,,001,2022-09-26_14h03.10.569,test9,2022.1.4,60.06597647446234,
,,,,,,,,2,nBack2Cond.xlsx,121,8,0,-0.2,None,2,134,,,,,,,,,,,,,0,1,1,1,0,14,14,14,,,,,,,,,,,,,,,,,,,,,,,,,,,,,,,,,,,,,,,,,,,,,,,,,,,,,,,,,,,,,,None,994.4303046000423,None,994.4303046000423,995.4453332000412,995.4284401000477,None,994.4303046000423,None,994.4303046000423,None,994.4303046000423,None,994.4303046000423,None,994.4303046000423,None,994.4303046000423,None,994.4303046000423,None,994.4303046000423,None,,,,,,,,,,,,,,,,,,,,,,,,,001,2022-09-26_14h03.10.569,test9,2022.1.4,60.06597647446234,
,,,,,,,,2,nBack2Cond.xlsx,121,9,0.2,-0.2,None,2,135,,,,,,,,,,,,,0,1,1,1,0,15,15,15,,,,,,,,,,,,,,,,,,,,,,,,,,,,,,,,,,,,,,,,,,,,,,,,,,,,,,,,,,,,,,None,996.4309451000299,None,996.4309451000299,997.4463668000535,997.4286471000523,None,996.4309451000299,None,996.4309451000299,None,996.4309451000299,None,996.4309451000299,None,996.4309451000299,None,996.4309451000299,None,996.4309451000299,None,996.4309451000299,None,,,,,,,,,,,,,,,,,,,,,,,,,001,2022-09-26_14h03.10.569,test9,2022.1.4,60.06597647446234,
,,,,,,,,2,nBack2Cond.xlsx,121,9,0.2,-0.2,None,2,136,,,,,,,,,,,,,0,1,1,1,0,16,16,16,,,,,,,,,,,,,,,,,,,,,,,,,,,,,,,,,,,,,,,,,,,,,,,,,,,,,,,,,,,,,,None,998.4307462000288,None,998.4307462000288,999.4451329000294,999.4283059000154,None,998.4307462000288,None,998.4307462000288,None,998.4307462000288,None,998.4307462000288,None,998.4307462000288,None,998.4307462000288,None,998.4307462000288,None,998.4307462000288,None,,,,,,,,,,,,,,,,,,,,,,,,,001,2022-09-26_14h03.10.569,test9,2022.1.4,60.06597647446234,
,,,,,,,,2,nBack2Cond.xlsx,121,1,-0.2,0.2,None,2,137,,,,,,,,,,,,,0,1,1,1,0,17,17,17,,,,,,,,,,,,,,,,,,,,,,,,,,,,,,,,,,,,,,,,,,,,,,,,,,,,,,,,,,,,,,None,1000.432116400043,None,1000.432116400043,1001.4454220000189,1001.4283437000122,None,1000.432116400043,None,1000.432116400043,None,1000.432116400043,None,1000.432116400043,None,1000.432116400043,None,1000.432116400043,None,1000.432116400043,None,1000.432116400043,None,,,,,,,,,,,,,,,,,,,,,,,,,001,2022-09-26_14h03.10.569,test9,2022.1.4,60.06597647446234,
,,,,,,,,2,nBack2Cond.xlsx,121,3,0.2,0.2,None,2,138,,,,,,,,,,,,,0,1,1,1,0,18,18,18,,,,,,,,,,,,,,,,,,,,,,,,,,,,,,,,,,,,,,,,,,,,,,,,,,,,,,,,,,,,,,None,1002.430362700019,None,1002.430362700019,1003.4453110000468,1003.4284031999996,None,1002.430362700019,None,1002.430362700019,None,1002.430362700019,None,1002.430362700019,None,1002.430362700019,None,1002.430362700019,None,1002.430362700019,None,1002.430362700019,None,,,,,,,,,,,,,,,,,,,,,,,,,001,2022-09-26_14h03.10.569,test9,2022.1.4,60.06597647446234,
,,,,,,,,2,nBack2Cond.xlsx,121,5,0,0,None,2,139,,,,,,,,,,,,,0,1,1,1,0,19,19,19,,,,,,,,,,,,,,,,,,,,,,,,,,,,,,,,,,,,,,,,,,,,,,,,,,,,,,,,,,,,,,None,1004.4313516000402,None,1004.4313516000402,1005.4453386000241,1005.4283763000276,None,1004.4313516000402,None,1004.4313516000402,None,1004.4313516000402,None,1004.4313516000402,None,1004.4313516000402,None,1004.4313516000402,None,1004.4313516000402,None,1004.4313516000402,None,,,,,,,,,,,,,,,,,,,,,,,,,001,2022-09-26_14h03.10.569,test9,2022.1.4,60.06597647446234,
,,,,,,,,2,nBack2Cond.xlsx,121,3,0.2,0.2,space,2,140,,,,,,,,,,,,,0,1,1,1,0,20,20,20,,,,,,,,,,,,,,,,,,,,,,,,,,,,,,,,,,,,,,,,,,,,,,,,,,,,,,,,,,,,,,space,1006.4309128000168,None,1006.4309128000168,1007.4452525000088,1007.4284205000149,None,1006.4309128000168,None,1006.4309128000168,None,1006.4309128000168,None,1006.4309128000168,None,1006.4309128000168,None,1006.4309128000168,None,1006.4309128000168,None,1006.4309128000168,None,0.5283291000523604,,,,,,,,,,,,,,,,,,,,,,,,001,2022-09-26_14h03.10.569,test9,2022.1.4,60.06597647446234,
,,,,,,,,2,nBack2Cond.xlsx,121,4,-0.2,0,None,2,141,,,,,,,,,,,,,0,1,1,1,0,21,21,21,,,,,,,,,,,,,,,,,,,,,,,,,,,,,,,,,,,,,,,,,,,,,,,,,,,,,,,,,,,,,,None,1008.4307680000202,None,1008.4307680000202,1009.4452184000402,1009.4283580000047,None,1008.4307680000202,None,1008.4307680000202,None,1008.4307680000202,None,1008.4307680000202,None,1008.4307680000202,None,1008.4307680000202,None,1008.4307680000202,None,1008.4307680000202,None,,,,,,,,,,,,,,,,,,,,,,,,,001,2022-09-26_14h03.10.569,test9,2022.1.4,60.06597647446234,
,,,,,,,,2,nBack2Cond.xlsx,121,7,-0.2,-0.2,None,2,142,,,,,,,,,,,,,0,1,1,1,0,22,22,22,,,,,,,,,,,,,,,,,,,,,,,,,,,,,,,,,,,,,,,,,,,,,,,,,,,,,,,,,,,,,,None,1010.4301593000419,None,1010.4301593000419,1011.4451577000436,1011.4285517000244,None,1010.4301593000419,None,1010.4301593000419,None,1010.4301593000419,None,1010.4301593000419,None,1010.4301593000419,None,1010.4301593000419,None,1010.4301593000419,None,1010.4301593000419,None,,,,,,,,,,,,,,,,,,,,,,,,,001,2022-09-26_14h03.10.569,test9,2022.1.4,60.06597647446234,
,,,,,,,,2,nBack2Cond.xlsx,121,4,-0.2,0,space,2,143,,,,,,,,,,,,,0,1,1,1,0,23,23,23,,,,,,,,,,,,,,,,,,,,,,,,,,,,,,,,,,,,,,,,,,,,,,,,,,,,,,,,,,,,,,s,1012.430195700028,None,1012.430195700028,1013.445302600041,1013.428427100007,None,1012.430195700028,None,1012.430195700028,None,1012.430195700028,None,1012.430195700028,None,1012.430195700028,None,1012.430195700028,None,1012.430195700028,None,1012.430195700028,None,1.6393492000061087,,,,,,,,,,,,,,,,,,,,,,,,001,2022-09-26_14h03.10.569,test9,2022.1.4,60.06597647446234,
,,,,,,,,2,nBack2Cond.xlsx,121,4,-0.2,0,None,2,144,,,,,,,,,,,,,0,1,1,1,0,24,24,24,,,,,,,,,,,,,,,,,,,,,,,,,,,,,,,,,,,,,,,,,,,,,,,,,,,,,,,,,,,,,,,,,,,,,,,,,,,,,,,,,,,,,,,,,,,,,,,,,,,,,,,,,,,,,001,2022-09-26_14h03.10.569,test9,2022.1.4,60.06597647446234,
,,,,,,,,3,nBack3Cond.xlsx,131,4,-0.2,0,None,3,239,,,,,,,,,,,,,0,2,2,2,0,0,0,0,,,,,,,,,,,,,,,,,,,,,,,,,,,,,,,,,,,,,,,,,,,,,,,,,,,,,,,,1014.472271900042,None,1014.472271900042,None,1014.472271900042,None,None,1037.905868300004,None,1037.905868300004,1038.9118585000397,1038.8955281000235,None,1037.905868300004,None,1037.905868300004,None,1037.905868300004,None,1037.905868300004,None,1037.905868300004,None,1037.905868300004,None,1037.905868300004,None,1037.905868300004,None,,,,,,,,,,,,,,,,,,,,,,,,,001,2022-09-26_14h03.10.569,test9,2022.1.4,60.06597647446234,
,,,,,,,,3,nBack3Cond.xlsx,131,2,0,0.2,None,3,240,,,,,,,,,,,,,0,2,2,2,0,1,1,1,,,,,,,,,,,,,,,,,,,,,,,,,,,,,,,,,,,,,,,,,,,,,,,,,,,,,,,,,,,,,,None,1039.8975880000507,None,1039.8975880000507,1040.911737800052,1040.8955570000107,None,1039.8975880000507,None,1039.8975880000507,None,1039.8975880000507,None,1039.8975880000507,None,1039.8975880000507,None,1039.8975880000507,None,1039.8975880000507,None,1039.8975880000507,None,,,,,,,,,,,,,,,,,,,,,,,,,001,2022-09-26_14h03.10.569,test9,2022.1.4,60.06597647446234,
,,,,,,,,3,nBack3Cond.xlsx,131,9,0.2,-0.2,None,3,241,,,,,,,,,,,,,0,2,2,2,0,2,2,2,,,,,,,,,,,,,,,,,,,,,,,,,,,,,,,,,,,,,,,,,,,,,,,,,,,,,,,,,,,,,,None,1041.8990133000189,None,1041.8990133000189,1042.9116650000215,1042.8956578000216,None,1041.8990133000189,None,1041.8990133000189,None,1041.8990133000189,None,1041.8990133000189,None,1041.8990133000189,None,1041.8990133000189,None,1041.8990133000189,None,1041.8990133000189,None,,,,,,,,,,,,,,,,,,,,,,,,,001,2022-09-26_14h03.10.569,test9,2022.1.4,60.06597647446234,
,,,,,,,,3,nBack3Cond.xlsx,131,4,-0.2,0,space,3,242,,,,,,,,,,,,,0,2,2,2,0,3,3,3,,,,,,,,,,,,,,,,,,,,,,,,,,,,,,,,,,,,,,,,,,,,,,,,,,,,,,,,,,,,,,space,1043.8971752000507,None,1043.8971752000507,1044.9118429000373,1044.8954693000414,None,1043.8971752000507,None,1043.8971752000507,None,1043.8971752000507,None,1043.8971752000507,None,1043.8971752000507,None,1043.8971752000507,None,1043.8971752000507,None,1043.8971752000507,None,0.46177629998419434,,,,,,,,,,,,,,,,,,,,,,,,001,2022-09-26_14h03.10.569,test9,2022.1.4,60.06597647446234,
,,,,,,,,3,nBack3Cond.xlsx,131,3,0.2,0.2,None,3,243,,,,,,,,,,,,,0,2,2,2,0,4,4,4,,,,,,,,,,,,,,,,,,,,,,,,,,,,,,,,,,,,,,,,,,,,,,,,,,,,,,,,,,,,,,None,1045.897646300029,None,1045.897646300029,1046.9117671000422,1046.8952715000487,None,1045.897646300029,None,1045.897646300029,None,1045.897646300029,None,1045.897646300029,None,1045.897646300029,None,1045.897646300029,None,1045.897646300029,None,1045.897646300029,None,,,,,,,,,,,,,,,,,,,,,,,,,001,2022-09-26_14h03.10.569,test9,2022.1.4,60.06597647446234,
,,,,,,,,3,nBack3Cond.xlsx,131,9,0.2,-0.2,space,3,244,,,,,,,,,,,,,0,2,2,2,0,5,5,5,,,,,,,,,,,,,,,,,,,,,,,,,,,,,,,,,,,,,,,,,,,,,,,,,,,,,,,,,,,,,,None,1047.8973195000435,None,1047.8973195000435,1048.9118088000105,1048.8956478000036,None,1047.8973195000435,None,1047.8973195000435,None,1047.8973195000435,None,1047.8973195000435,None,1047.8973195000435,None,1047.8973195000435,None,1047.8973195000435,None,1047.8973195000435,None,,,,,,,,,,,,,,,,,,,,,,,,,001,2022-09-26_14h03.10.569,test9,2022.1.4,60.06597647446234,
,,,,,,,,3,nBack3Cond.xlsx,131,1,-0.2,0.2,None,3,245,,,,,,,,,,,,,0,2,2,2,0,6,6,6,,,,,,,,,,,,,,,,,,,,,,,,,,,,,,,,,,,,,,,,,,,,,,,,,,,,,,,,,,,,,,None,1049.8977725000004,None,1049.8977725000004,1050.911804500036,1050.8954601000296,None,1049.8977725000004,None,1049.8977725000004,None,1049.8977725000004,None,1049.8977725000004,None,1049.8977725000004,None,1049.8977725000004,None,1049.8977725000004,None,1049.8977725000004,None,,,,,,,,,,,,,,,,,,,,,,,,,001,2022-09-26_14h03.10.569,test9,2022.1.4,60.06597647446234,
,,,,,,,,3,nBack3Cond.xlsx,131,1,-0.2,0.2,None,3,246,,,,,,,,,,,,,0,2,2,2,0,7,7,7,,,,,,,,,,,,,,,,,,,,,,,,,,,,,,,,,,,,,,,,,,,,,,,,,,,,,,,,,,,,,,None,1051.8978752000257,None,1051.8978752000257,1052.9117878000252,1052.8952951999963,None,1051.8978752000257,None,1051.8978752000257,None,1051.8978752000257,None,1051.8978752000257,None,1051.8978752000257,None,1051.8978752000257,None,1051.8978752000257,None,1051.8978752000257,None,,,,,,,,,,,,,,,,,,,,,,,,,001,2022-09-26_14h03.10.569,test9,2022.1.4,60.06597647446234,
,,,,,,,,3,nBack3Cond.xlsx,131,6,0.2,0,None,3,247,,,,,,,,,,,,,0,2,2,2,0,8,8,8,,,,,,,,,,,,,,,,,,,,,,,,,,,,,,,,,,,,,,,,,,,,,,,,,,,,,,,,,,,,,,None,1053.8971169000142,None,1053.8971169000142,1054.9117243000073,1054.8953183999984,None,1053.8971169000142,None,1053.8971169000142,None,1053.8971169000142,None,1053.8971169000142,None,1053.8971169000142,None,1053.8971169000142,None,1053.8971169000142,None,1053.8971169000142,None,,,,,,,,,,,,,,,,,,,,,,,,,001,2022-09-26_14h03.10.569,test9,2022.1.4,60.06597647446234,
,,,,,,,,3,nBack3Cond.xlsx,131,1,-0.2,0.2,space,3,248,,,,,,,,,,,,,0,2,2,2,0,9,9,9,,,,,,,,,,,,,,,,,,,,,,,,,,,,,,,,,,,,,,,,,,,,,,,,,,,,,,,,,,,,,,space,1055.8972361000488,None,1055.8972361000488,1056.9117196000298,1056.8957570000202,None,1055.8972361000488,None,1055.8972361000488,None,1055.8972361000488,None,1055.8972361000488,None,1055.8972361000488,None,1055.8972361000488,None,1055.8972361000488,None,1055.8972361000488,None,0.5410009000333957,,,,,,,,,,,,,,,,,,,,,,,,001,2022-09-26_14h03.10.569,test9,2022.1.4,60.06597647446234,
,,,,,,,,3,nBack3Cond.xlsx,131,5,0,0,None,3,249,,,,,,,,,,,,,0,2,2,2,0,10,10,10,,,,,,,,,,,,,,,,,,,,,,,,,,,,,,,,,,,,,,,,,,,,,,,,,,,,,,,,,,,,,,None,1057.8973320000223,None,1057.8973320000223,1058.9117818000377,1058.8953246000456,None,1057.8973320000223,None,1057.8973320000223,None,1057.8973320000223,None,1057.8973320000223,None,1057.8973320000223,None,1057.8973320000223,None,1057.8973320000223,None,1057.8973320000223,None,,,,,,,,,,,,,,,,,,,,,,,,,001,2022-09-26_14h03.10.569,test9,2022.1.4,60.06597647446234,
,,,,,,,,3,nBack3Cond.xlsx,131,6,0.2,0,space,3,250,,,,,,,,,,,,,0,2,2,2,0,11,11,11,,,,,,,,,,,,,,,,,,,,,,,,,,,,,,,,,,,,,,,,,,,,,,,,,,,,,,,,,,,,,,None,1059.8998158000177,None,1059.8998158000177,1060.9119039000361,1060.895251800015,None,1059.8998158000177,None,1059.8998158000177,None,1059.8998158000177,None,1059.8998158000177,None,1059.8998158000177,None,1059.8998158000177,None,1059.8998158000177,None,1059.8998158000177,None,,,,,,,,,,,,,,,,,,,,,,,,,001,2022-09-26_14h03.10.569,test9,2022.1.4,60.06597647446234,
,,,,,,,,3,nBack3Cond.xlsx,131,3,0.2,0.2,None,3,251,,,,,,,,,,,,,0,2,2,2,0,12,12,12,,,,,,,,,,,,,,,,,,,,,,,,,,,,,,,,,,,,,,,,,,,,,,,,,,,,,,,,,,,,,,None,1061.898568100005,None,1061.898568100005,1062.9117667000392,1062.8954730000114,None,1061.898568100005,None,1061.898568100005,None,1061.898568100005,None,1061.898568100005,None,1061.898568100005,None,1061.898568100005,None,1061.898568100005,None,1061.898568100005,None,,,,,,,,,,,,,,,,,,,,,,,,,001,2022-09-26_14h03.10.569,test9,2022.1.4,60.06597647446234,
,,,,,,,,3,nBack3Cond.xlsx,131,1,-0.2,0.2,None,3,252,,,,,,,,,,,,,0,2,2,2,0,13,13,13,,,,,,,,,,,,,,,,,,,,,,,,,,,,,,,,,,,,,,,,,,,,,,,,,,,,,,,,,,,,,,None,1063.8975536000216,None,1063.8975536000216,1064.9117259000195,1064.8953639999963,None,1063.8975536000216,None,1063.8975536000216,None,1063.8975536000216,None,1063.8975536000216,None,1063.8975536000216,None,1063.8975536000216,None,1063.8975536000216,None,1063.8975536000216,None,,,,,,,,,,,,,,,,,,,,,,,,,001,2022-09-26_14h03.10.569,test9,2022.1.4,60.06597647446234,
,,,,,,,,3,nBack3Cond.xlsx,131,7,-0.2,-0.2,None,3,253,,,,,,,,,,,,,0,2,2,2,0,14,14,14,,,,,,,,,,,,,,,,,,,,,,,,,,,,,,,,,,,,,,,,,,,,,,,,,,,,,,,,,,,,,,None,1065.8986504000495,None,1065.8986504000495,1066.9119129000464,1066.8954141000286,None,1065.8986504000495,None,1065.8986504000495,None,1065.8986504000495,None,1065.8986504000495,None,1065.8986504000495,None,1065.8986504000495,None,1065.8986504000495,None,1065.8986504000495,None,,,,,,,,,,,,,,,,,,,,,,,,,001,2022-09-26_14h03.10.569,test9,2022.1.4,60.06597647446234,
,,,,,,,,3,nBack3Cond.xlsx,131,9,0.2,-0.2,None,3,254,,,,,,,,,,,,,0,2,2,2,0,15,15,15,,,,,,,,,,,,,,,,,,,,,,,,,,,,,,,,,,,,,,,,,,,,,,,,,,,,,,,,,,,,,,None,1067.8992239000509,None,1067.8992239000509,1068.912164700043,1068.8956450000405,None,1067.8992239000509,None,1067.8992239000509,None,1067.8992239000509,None,1067.8992239000509,None,1067.8992239000509,None,1067.8992239000509,None,1067.8992239000509,None,1067.8992239000509,None,,,,,,,,,,,,,,,,,,,,,,,,,001,2022-09-26_14h03.10.569,test9,2022.1.4,60.06597647446234,
,,,,,,,,3,nBack3Cond.xlsx,131,1,-0.2,0.2,space,3,255,,,,,,,,,,,,,0,2,2,2,0,16,16,16,,,,,,,,,,,,,,,,,,,,,,,,,,,,,,,,,,,,,,,,,,,,,,,,,,,,,,,,,,,,,,space,1069.883358800027,None,1069.883358800027,1070.8953056000173,1070.8783789000008,1071.8784298000392,1069.883358800027,None,1069.883358800027,None,1069.883358800027,None,1069.883358800027,None,1069.883358800027,None,1069.883358800027,None,1069.883358800027,None,1069.883358800027,None,0.35457920003682375,,,,,,,,,,,,,,,,,,,,,,,,001,2022-09-26_14h03.10.569,test9,2022.1.4,60.06597647446234,
,,,,,,,,3,nBack3Cond.xlsx,131,3,0.2,0.2,None,3,256,,,,,,,,,,,,,0,2,2,2,0,17,17,17,,,,,,,,,,,,,,,,,,,,,,,,,,,,,,,,,,,,,,,,,,,,,,,,,,,,,,,,,,,,,,None,1071.8990447000251,None,1071.8990447000251,1072.9118677000515,1072.8955566000077,None,1071.8990447000251,None,1071.8990447000251,None,1071.8990447000251,None,1071.8990447000251,None,1071.8990447000251,None,1071.8990447000251,None,1071.8990447000251,None,1071.8990447000251,None,,,,,,,,,,,,,,,,,,,,,,,,,001,2022-09-26_14h03.10.569,test9,2022.1.4,60.06597647446234,
,,,,,,,,3,nBack3Cond.xlsx,131,7,-0.2,-0.2,None,3,257,,,,,,,,,,,,,0,2,2,2,0,18,18,18,,,,,,,,,,,,,,,,,,,,,,,,,,,,,,,,,,,,,,,,,,,,,,,,,,,,,,,,,,,,,,None,1073.8975801000488,None,1073.8975801000488,1074.9117388000013,1074.8958019000129,None,1073.8975801000488,None,1073.8975801000488,None,1073.8975801000488,None,1073.8975801000488,None,1073.8975801000488,None,1073.8975801000488,None,1073.8975801000488,None,1073.8975801000488,None,,,,,,,,,,,,,,,,,,,,,,,,,001,2022-09-26_14h03.10.569,test9,2022.1.4,60.06597647446234,
,,,,,,,,3,nBack3Cond.xlsx,131,5,0,0,None,3,258,,,,,,,,,,,,,0,2,2,2,0,19,19,19,,,,,,,,,,,,,,,,,,,,,,,,,,,,,,,,,,,,,,,,,,,,,,,,,,,,,,,,,,,,,,None,1075.8971686000004,None,1075.8971686000004,1076.9118790000211,1076.89531360002,None,1075.8971686000004,None,1075.8971686000004,None,1075.8971686000004,None,1075.8971686000004,None,1075.8971686000004,None,1075.8971686000004,None,1075.8971686000004,None,1075.8971686000004,None,,,,,,,,,,,,,,,,,,,,,,,,,001,2022-09-26_14h03.10.569,test9,2022.1.4,60.06597647446234,
,,,,,,,,3,nBack3Cond.xlsx,131,3,0.2,0.2,space,3,259,,,,,,,,,,,,,0,2,2,2,0,20,20,20,,,,,,,,,,,,,,,,,,,,,,,,,,,,,,,,,,,,,,,,,,,,,,,,,,,,,,,,,,,,,,space,1077.8972428000416,None,1077.8972428000416,1078.9118444000487,1078.8954453000333,None,1077.8972428000416,None,1077.8972428000416,None,1077.8972428000416,None,1077.8972428000416,None,1077.8972428000416,None,1077.8972428000416,None,1077.8972428000416,None,1077.8972428000416,None,0.4923627999960445,,,,,,,,,,,,,,,,,,,,,,,,001,2022-09-26_14h03.10.569,test9,2022.1.4,60.06597647446234,
,,,,,,,,3,nBack3Cond.xlsx,131,8,0,-0.2,None,3,260,,,,,,,,,,,,,0,2,2,2,0,21,21,21,,,,,,,,,,,,,,,,,,,,,,,,,,,,,,,,,,,,,,,,,,,,,,,,,,,,,,,,,,,,,,None,1079.897337900009,None,1079.897337900009,1080.9117749000434,1080.8953763000318,None,1079.897337900009,None,1079.897337900009,None,1079.897337900009,None,1079.897337900009,None,1079.897337900009,None,1079.897337900009,None,1079.897337900009,None,1079.897337900009,None,,,,,,,,,,,,,,,,,,,,,,,,,001,2022-09-26_14h03.10.569,test9,2022.1.4,60.06597647446234,
,,,,,,,,3,nBack3Cond.xlsx,131,7,-0.2,-0.2,None,3,261,,,,,,,,,,,,,0,2,2,2,0,22,22,22,,,,,,,,,,,,,,,,,,,,,,,,,,,,,,,,,,,,,,,,,,,,,,,,,,,,,,,,,,,,,,None,1081.8974008000223,None,1081.8974008000223,1082.9119710000232,1082.8954120000126,None,1081.8974008000223,None,1081.8974008000223,None,1081.8974008000223,None,1081.8974008000223,None,1081.8974008000223,None,1081.8974008000223,None,1081.8974008000223,None,1081.8974008000223,None,,,,,,,,,,,,,,,,,,,,,,,,,001,2022-09-26_14h03.10.569,test9,2022.1.4,60.06597647446234,
,,,,,,,,3,nBack3Cond.xlsx,131,4,-0.2,0,None,3,262,,,,,,,,,,,,,0,2,2,2,0,23,23,23,,,,,,,,,,,,,,,,,,,,,,,,,,,,,,,,,,,,,,,,,,,,,,,,,,,,,,,,,,,,,,None,1083.8998204000527,None,1083.8998204000527,1084.911821100046,1084.8954178999993,None,1083.8998204000527,None,1083.8998204000527,None,1083.8998204000527,None,1083.8998204000527,None,1083.8998204000527,None,1083.8998204000527,None,1083.8998204000527,None,1083.8998204000527,None,,,,,,,,,,,,,,,,,,,,,,,,,001,2022-09-26_14h03.10.569,test9,2022.1.4,60.06597647446234,
,,,,,,,,3,nBack3Cond.xlsx,131,8,0,-0.2,space,3,263,,,,,,,,,,,,,0,2,2,2,0,24,24,24,,,,,,,,,,,,,,,,,,,,,,,,,,,,,,,,,,,,,,,,,,,,,,,,,,,,,,,,,,,,,,space,1085.8972872000304,None,1085.8972872000304,1086.9119141999981,1086.8956492000143,None,1085.8972872000304,None,1085.8972872000304,None,1085.8972872000304,None,1085.8972872000304,None,1085.8972872000304,None,1085.8972872000304,None,1085.8972872000304,None,1085.8972872000304,None,0.5165241000358947,,,,,,,,,,,,,,,,,,,,,,,,001,2022-09-26_14h03.10.569,test9,2022.1.4,60.06597647446234,
,,,,,,,,3,nBack3Cond.xlsx,131,5,0,0,None,3,264,,,,,,,,,,,,,0,2,2,2,0,25,25,25,,,,,,,,,,,,,,,,,,,,,,,,,,,,,,,,,,,,,,,,,,,,,,,,,,,,,,,,,,,,,,None,1087.8977803000016,None,1087.8977803000016,1088.9117917999974,1088.895258500008,None,1087.8977803000016,None,1087.8977803000016,None,1087.8977803000016,None,1087.8977803000016,None,1087.8977803000016,None,1087.8977803000016,None,1087.8977803000016,None,1087.8977803000016,None,,,,,,,,,,,,,,,,,,,,,,,,,001,2022-09-26_14h03.10.569,test9,2022.1.4,60.06597647446234,
,,,,,,,,3,nBack3Cond.xlsx,131,2,0,0.2,None,3,265,,,,,,,,,,,,,0,2,2,2,0,26,26,26,,,,,,,,,,,,,,,,,,,,,,,,,,,,,,,,,,,,,,,,,,,,,,,,,,,,,,,,,,,,,,None,1089.8996129000443,None,1089.8996129000443,1090.911860799999,1090.8955437000259,None,1089.8996129000443,None,1089.8996129000443,None,1089.8996129000443,None,1089.8996129000443,None,1089.8996129000443,None,1089.8996129000443,None,1089.8996129000443,None,1089.8996129000443,None,,,,,,,,,,,,,,,,,,,,,,,,,001,2022-09-26_14h03.10.569,test9,2022.1.4,60.06597647446234,
,,,,,,,,3,nBack3Cond.xlsx,131,6,0.2,0,None,3,266,,,,,,,,,,,,,0,2,2,2,0,27,27,27,,,,,,,,,,,,,,,,,,,,,,,,,,,,,,,,,,,,,,,,,,,,,,,,,,,,,,,,,,,,,,None,1091.8980358000263,None,1091.8980358000263,1092.912006300001,1092.8957134000375,None,1091.8980358000263,None,1091.8980358000263,None,1091.8980358000263,None,1091.8980358000263,None,1091.8980358000263,None,1091.8980358000263,None,1091.8980358000263,None,1091.8980358000263,None,,,,,,,,,,,,,,,,,,,,,,,,,001,2022-09-26_14h03.10.569,test9,2022.1.4,60.06597647446234,
,,,,,,,,3,nBack3Cond.xlsx,131,5,0,0,space,3,267,,,,,,,,,,,,,0,2,2,2,0,28,28,28,,,,,,,,,,,,,,,,,,,,,,,,,,,,,,,,,,,,,,,,,,,,,,,,,,,,,,,,,,,,,,s,1093.9007760999957,None,1093.9007760999957,1094.9117922000005,1094.8954555000528,None,1093.9007760999957,None,1093.9007760999957,None,1093.9007760999957,None,1093.9007760999957,None,1093.9007760999957,None,1093.9007760999957,None,1093.9007760999957,None,1093.9007760999957,None,0.10482360003516078,,,,,,,,,,,,,,,,,,,,,,,,001,2022-09-26_14h03.10.569,test9,2022.1.4,60.06597647446234,
,,,,,,,,3,nBack3Cond.xlsx,131,2,0,0.2,space,3,268,,,,,,,,,,,,,0,2,2,2,0,29,29,29,,,,,,,,,,,,,,,,,,,,,,,,,,,,,,,,,,,,,,,,,,,,,,,,,,,,,,,,,,,,,,,,,,,,,,,,,,,,,,,,,,,,,,,,,,,,,,,,,,,,,,,,,,,,,001,2022-09-26_14h03.10.569,test9,2022.1.4,60.06597647446234,
,,,,,,,,,,,2,0,0.2,space,3,268,,,,,,,,,,,,,,,,,0,29,29,29,,,,,,,,,,,,,,,,,,,,,,,,,,,,,,,,,,,,,,,,,,,,,,,,,,,,,,,,,,,,,,,,,,,,,,,,,,,,,,,,,,,,,,1095.895546200045,None,s,7.790594500023872,1095.895546200045,None,,,,,,,,,,,,,,,,,,001,2022-09-26_14h03.10.569,test9,2022.1.4,60.06597647446234,
,,,,,,,,,,,2,0,0.2,space,3,268,,,,,,,,,,,,,,,,,0,29,29,29,,,,,,,,,,,,,,,,,,,,,,,,,,,,,,,,,,,,,,,,,,,,,,,,,,,,,,,,,,,,,,,,,,,,,,,,,,,,,,,,,,,,,,,,,,,,None,None,None,None,None,,,,,,,,,,,,,001,2022-09-26_14h03.10.569,test9,2022.1.4,60.06597647446234,
,,,,,,,,,,,2,0,0.2,space,3,268,,,,,,,,,,,,,,,,,0,29,29,29,,,,,,,,,,,,,,,,,,,,,,,,,,,,,,,,,,,,,,,,,,,,,,,,,,,,,,,,,,,,,,,,,,,,,,,,,,,,,,,,,,,,,,,,,,,,,,,,,None,None,None,None,None,,,,,,,,001,2022-09-26_14h03.10.569,test9,2022.1.4,60.06597647446234,
,,,,,,,,,,,2,0,0.2,space,3,268,,,,,,,,,,,,,,,,,0,29,29,29,,,,,,,,,,,,,,,,,,,,,,,,,,,,,,,,,,,,,,,,,,,,,,,,,,,,,,,,,,,,,,,,,,,,,,,,,,,,,,,,,,,,,,,,,,,,,,,,,,,,,,1103.7645185000147,None,space,1.618006000004243,1103.7645185000147,None,,001,2022-09-26_14h03.10.569,test9,2022.1.4,60.06597647446234,
